workerId,hitId,assignmentId,subject,studyid,exp_date,exp_start,exp_end,time_start,time_end,trial,type,sequence,reward_validity,answer,image_top,image_left,image_right,response,response_time,response_acc,volatility,practice
vSDXTnz7,3atyli1pswfm29bow6spg463876ojo,3tvss0c0e5dq85epqo25oo2qmblwt6,vSDXTnz7,2020-0188,2020-11-17,09:04:42,09:22:57,NA,incomplete,0,shape,0,0,left,Blue_Triangle_Chess_1.jpg,Red_Triangle_Dots_2.jpg,Green_Star_Stripes_1.jpg,left,1406.9250000175089,true,NA,true
vSDXTnz7,3atyli1pswfm29bow6spg463876ojo,3tvss0c0e5dq85epqo25oo2qmblwt6,vSDXTnz7,2020-0188,2020-11-17,09:04:42,09:22:57,NA,incomplete,1,shape,0,0,right,Blue_Plus_Grid_2.jpg,Purple_Circle_Stripes_2.jpg,Green_Plus_Dots_1.jpg,left,1008.9400000288151,false,NA,true
vSDXTnz7,3atyli1pswfm29bow6spg463876ojo,3tvss0c0e5dq85epqo25oo2qmblwt6,vSDXTnz7,2020-0188,2020-11-17,09:04:42,09:22:57,NA,incomplete,2,shape,0,1,left,Purple_Triangle_Chess_2.jpg,Red_Triangle_Stripes_3.jpg,Blue_Circle_Grid_2.jpg,left,1314.9850000045262,true,NA,true
vSDXTnz7,3atyli1pswfm29bow6spg463876ojo,3tvss0c0e5dq85epqo25oo2qmblwt6,vSDXTnz7,2020-0188,2020-11-17,09:04:42,09:22:57,NA,incomplete,3,shape,0,1,left,Purple_Star_Chess_2.jpg,Red_Star_Stripes_1.jpg,Blue_Circle_Grid_2.jpg,left,799.7050000121817,true,NA,true
vSDXTnz7,3atyli1pswfm29bow6spg463876ojo,3tvss0c0e5dq85epqo25oo2qmblwt6,vSDXTnz7,2020-0188,2020-11-17,09:04:42,09:22:57,NA,incomplete,4,shape,0,0,left,Red_Circle_Stripes_2.jpg,Purple_Circle_Grid_3.jpg,Blue_Star_Chess_2.jpg,left,1118.9199999789707,true,NA,true
vSDXTnz7,3atyli1pswfm29bow6spg463876ojo,3tvss0c0e5dq85epqo25oo2qmblwt6,vSDXTnz7,2020-0188,2020-11-17,09:04:42,09:22:57,NA,incomplete,5,shape,0,1,left,Red_Triangle_Dots_1.jpg,Purple_Triangle_Stripes_3.jpg,Green_Plus_Grid_1.jpg,left,1405.2350000129081,true,NA,true
vSDXTnz7,3atyli1pswfm29bow6spg463876ojo,3tvss0c0e5dq85epqo25oo2qmblwt6,vSDXTnz7,2020-0188,2020-11-17,09:04:42,09:22:57,NA,incomplete,6,shape,0,1,left,Blue_Star_Stripes_4.jpg,Red_Star_Chess_1.jpg,Purple_Triangle_Dots_4.jpg,left,1117.180000001099,true,NA,true
vSDXTnz7,3atyli1pswfm29bow6spg463876ojo,3tvss0c0e5dq85epqo25oo2qmblwt6,vSDXTnz7,2020-0188,2020-11-17,09:04:42,09:22:57,NA,incomplete,7,shape,0,0,left,Blue_Plus_Stripes_3.jpg,Red_Plus_Grid_4.jpg,Green_Star_Dots_3.jpg,left,889.9450000026263,true,NA,true
vSDXTnz7,3atyli1pswfm29bow6spg463876ojo,3tvss0c0e5dq85epqo25oo2qmblwt6,vSDXTnz7,2020-0188,2020-11-17,09:04:42,09:22:57,NA,incomplete,8,shape,0,1,left,Blue_Star_Stripes_4.jpg,Green_Star_Dots_3.jpg,Purple_Circle_Chess_4.jpg,left,990.0899999774992,true,NA,true
vSDXTnz7,3atyli1pswfm29bow6spg463876ojo,3tvss0c0e5dq85epqo25oo2qmblwt6,vSDXTnz7,2020-0188,2020-11-17,09:04:42,09:22:57,NA,incomplete,9,shape,0,1,right,Red_Triangle_Grid_3.jpg,Purple_Star_Stripes_3.jpg,Green_Triangle_Chess_1.jpg,right,1500.8800000068732,true,NA,true
vSDXTnz7,3atyli1pswfm29bow6spg463876ojo,3tvss0c0e5dq85epqo25oo2qmblwt6,vSDXTnz7,2020-0188,2020-11-17,09:04:42,09:22:57,NA,incomplete,10,shape,0,1,right,Red_Star_Dots_3.jpg,Green_Circle_Stripes_3.jpg,Blue_Star_Chess_4.jpg,right,878.969999961555,true,NA,true
vSDXTnz7,3atyli1pswfm29bow6spg463876ojo,3tvss0c0e5dq85epqo25oo2qmblwt6,vSDXTnz7,2020-0188,2020-11-17,09:04:42,09:22:57,NA,incomplete,11,shape,0,1,left,Red_Triangle_Stripes_4.jpg,Blue_Triangle_Chess_3.jpg,Purple_Star_Dots_4.jpg,left,990.6900000059977,true,NA,true
vSDXTnz7,3atyli1pswfm29bow6spg463876ojo,3tvss0c0e5dq85epqo25oo2qmblwt6,vSDXTnz7,2020-0188,2020-11-17,09:04:42,09:22:57,NA,incomplete,12,shape,0,1,left,Purple_Star_Dots_4.jpg,Green_Star_Stripes_2.jpg,Blue_Triangle_Grid_4.jpg,left,900.1900000148453,true,NA,true
vSDXTnz7,3atyli1pswfm29bow6spg463876ojo,3tvss0c0e5dq85epqo25oo2qmblwt6,vSDXTnz7,2020-0188,2020-11-17,09:04:42,09:22:57,NA,incomplete,13,shape,0,1,left,Green_Plus_Dots_3.jpg,Purple_Plus_Stripes_1.jpg,Blue_Triangle_Grid_3.jpg,left,1294.225000019651,true,NA,true
vSDXTnz7,3atyli1pswfm29bow6spg463876ojo,3tvss0c0e5dq85epqo25oo2qmblwt6,vSDXTnz7,2020-0188,2020-11-17,09:04:42,09:22:57,NA,incomplete,14,shape,0,1,right,Purple_Star_Dots_1.jpg,Red_Plus_Chess_1.jpg,Blue_Star_Stripes_2.jpg,right,1052.65500000678,true,NA,true
vSDXTnz7,3atyli1pswfm29bow6spg463876ojo,3tvss0c0e5dq85epqo25oo2qmblwt6,vSDXTnz7,2020-0188,2020-11-17,09:04:42,09:22:57,NA,incomplete,15,shape,0,0,right,Green_Circle_Dots_3.jpg,Blue_Star_Chess_3.jpg,Purple_Circle_Stripes_1.jpg,right,1095.7100000232458,true,NA,true
vSDXTnz7,3atyli1pswfm29bow6spg463876ojo,3tvss0c0e5dq85epqo25oo2qmblwt6,vSDXTnz7,2020-0188,2020-11-17,09:04:42,09:22:57,NA,incomplete,16,shape,0,1,left,Red_Triangle_Grid_2.jpg,Blue_Triangle_Dots_1.jpg,Green_Plus_Stripes_2.jpg,left,854.6300000161864,true,NA,true
vSDXTnz7,3atyli1pswfm29bow6spg463876ojo,3tvss0c0e5dq85epqo25oo2qmblwt6,vSDXTnz7,2020-0188,2020-11-17,09:04:42,09:22:57,NA,incomplete,17,shape,0,1,right,Green_Plus_Stripes_3.jpg,Purple_Triangle_Dots_3.jpg,Blue_Plus_Grid_4.jpg,right,983.6450000293553,true,NA,true
vSDXTnz7,3atyli1pswfm29bow6spg463876ojo,3tvss0c0e5dq85epqo25oo2qmblwt6,vSDXTnz7,2020-0188,2020-11-17,09:04:42,09:22:57,NA,incomplete,18,shape,0,0,right,Blue_Circle_Dots_1.jpg,Red_Plus_Grid_1.jpg,Purple_Circle_Stripes_3.jpg,right,748.2200000085868,true,NA,true
vSDXTnz7,3atyli1pswfm29bow6spg463876ojo,3tvss0c0e5dq85epqo25oo2qmblwt6,vSDXTnz7,2020-0188,2020-11-17,09:04:42,09:22:57,NA,incomplete,19,shape,0,0,right,Green_Star_Grid_1.jpg,Red_Triangle_Dots_1.jpg,Purple_Star_Chess_2.jpg,right,793.6849999823608,true,NA,true
vSDXTnz7,3atyli1pswfm29bow6spg463876ojo,3tvss0c0e5dq85epqo25oo2qmblwt6,vSDXTnz7,2020-0188,2020-11-17,09:04:42,09:22:57,NA,incomplete,20,number,1,1,left,Blue_Star_Dots_4.jpg,Red_Triangle_Stripes_4.jpg,Green_Star_Grid_3.jpg,left,1270.95500001451,true,NA,true
vSDXTnz7,3atyli1pswfm29bow6spg463876ojo,3tvss0c0e5dq85epqo25oo2qmblwt6,vSDXTnz7,2020-0188,2020-11-17,09:04:42,09:22:57,NA,incomplete,21,number,1,1,right,Green_Circle_Stripes_3.jpg,Red_Circle_Chess_4.jpg,Purple_Star_Grid_3.jpg,right,1120.5400000326335,true,NA,true
vSDXTnz7,3atyli1pswfm29bow6spg463876ojo,3tvss0c0e5dq85epqo25oo2qmblwt6,vSDXTnz7,2020-0188,2020-11-17,09:04:42,09:22:57,NA,incomplete,22,number,1,1,right,Green_Plus_Grid_4.jpg,Blue_Plus_Dots_3.jpg,Purple_Triangle_Stripes_4.jpg,right,971.3800000026822,true,NA,true
vSDXTnz7,3atyli1pswfm29bow6spg463876ojo,3tvss0c0e5dq85epqo25oo2qmblwt6,vSDXTnz7,2020-0188,2020-11-17,09:04:42,09:22:57,NA,incomplete,23,number,1,1,right,Blue_Circle_Stripes_3.jpg,Purple_Circle_Grid_4.jpg,Red_Plus_Chess_3.jpg,right,933.3750000223517,true,NA,true
vSDXTnz7,3atyli1pswfm29bow6spg463876ojo,3tvss0c0e5dq85epqo25oo2qmblwt6,vSDXTnz7,2020-0188,2020-11-17,09:04:42,09:22:57,NA,incomplete,24,number,1,1,right,Blue_Circle_Dots_2.jpg,Red_Circle_Grid_3.jpg,Purple_Star_Stripes_2.jpg,right,870.1850000070408,true,NA,true
vSDXTnz7,3atyli1pswfm29bow6spg463876ojo,3tvss0c0e5dq85epqo25oo2qmblwt6,vSDXTnz7,2020-0188,2020-11-17,09:04:42,09:22:57,NA,incomplete,25,number,1,1,right,Purple_Star_Chess_1.jpg,Blue_Star_Grid_4.jpg,Red_Plus_Stripes_1.jpg,right,948.7199999857694,true,NA,true
vSDXTnz7,3atyli1pswfm29bow6spg463876ojo,3tvss0c0e5dq85epqo25oo2qmblwt6,vSDXTnz7,2020-0188,2020-11-17,09:04:42,09:22:57,NA,incomplete,26,number,1,1,left,Red_Plus_Grid_4.jpg,Green_Triangle_Dots_4.jpg,Purple_Plus_Stripes_3.jpg,left,931.3250000122935,true,NA,true
vSDXTnz7,3atyli1pswfm29bow6spg463876ojo,3tvss0c0e5dq85epqo25oo2qmblwt6,vSDXTnz7,2020-0188,2020-11-17,09:04:42,09:22:57,NA,incomplete,27,number,1,1,right,Blue_Triangle_Grid_1.jpg,Purple_Triangle_Stripes_4.jpg,Red_Circle_Chess_1.jpg,right,662.0149999507703,true,NA,true
vSDXTnz7,3atyli1pswfm29bow6spg463876ojo,3tvss0c0e5dq85epqo25oo2qmblwt6,vSDXTnz7,2020-0188,2020-11-17,09:04:42,09:22:57,NA,incomplete,28,number,1,1,left,Green_Star_Chess_1.jpg,Blue_Triangle_Stripes_1.jpg,Purple_Star_Dots_4.jpg,left,813.6800000211224,true,NA,true
vSDXTnz7,3atyli1pswfm29bow6spg463876ojo,3tvss0c0e5dq85epqo25oo2qmblwt6,vSDXTnz7,2020-0188,2020-11-17,09:04:42,09:22:57,NA,incomplete,29,number,1,1,right,Red_Star_Grid_3.jpg,Purple_Star_Dots_4.jpg,Green_Triangle_Chess_3.jpg,right,781.7849999992177,true,NA,true
vSDXTnz7,3atyli1pswfm29bow6spg463876ojo,3tvss0c0e5dq85epqo25oo2qmblwt6,vSDXTnz7,2020-0188,2020-11-17,09:04:42,09:22:57,NA,incomplete,30,number,1,1,right,Green_Plus_Grid_2.jpg,Red_Plus_Dots_1.jpg,Purple_Triangle_Chess_2.jpg,right,1420.2950000180863,true,NA,true
vSDXTnz7,3atyli1pswfm29bow6spg463876ojo,3tvss0c0e5dq85epqo25oo2qmblwt6,vSDXTnz7,2020-0188,2020-11-17,09:04:42,09:22:57,NA,incomplete,31,number,1,0,left,Blue_Triangle_Chess_4.jpg,Red_Plus_Stripes_4.jpg,Purple_Triangle_Dots_1.jpg,left,1142.1449999907054,true,NA,true
vSDXTnz7,3atyli1pswfm29bow6spg463876ojo,3tvss0c0e5dq85epqo25oo2qmblwt6,vSDXTnz7,2020-0188,2020-11-17,09:04:42,09:22:57,NA,incomplete,32,number,1,1,right,Red_Circle_Dots_3.jpg,Purple_Circle_Stripes_1.jpg,Green_Plus_Grid_3.jpg,right,677.5250000064261,true,NA,true
vSDXTnz7,3atyli1pswfm29bow6spg463876ojo,3tvss0c0e5dq85epqo25oo2qmblwt6,vSDXTnz7,2020-0188,2020-11-17,09:04:42,09:22:57,NA,incomplete,33,number,1,1,left,Green_Triangle_Dots_2.jpg,Blue_Plus_Stripes_2.jpg,Purple_Triangle_Grid_4.jpg,left,1020.3149999724701,true,NA,true
vSDXTnz7,3atyli1pswfm29bow6spg463876ojo,3tvss0c0e5dq85epqo25oo2qmblwt6,vSDXTnz7,2020-0188,2020-11-17,09:04:42,09:22:57,NA,incomplete,34,number,1,1,right,Purple_Star_Dots_3.jpg,Red_Star_Stripes_2.jpg,Blue_Circle_Grid_3.jpg,right,1006.969999987632,true,NA,true
vSDXTnz7,3atyli1pswfm29bow6spg463876ojo,3tvss0c0e5dq85epqo25oo2qmblwt6,vSDXTnz7,2020-0188,2020-11-17,09:04:42,09:22:57,NA,incomplete,35,number,1,1,left,Red_Triangle_Grid_4.jpg,Purple_Circle_Chess_4.jpg,Blue_Triangle_Stripes_2.jpg,left,912.0799999800511,true,NA,true
vSDXTnz7,3atyli1pswfm29bow6spg463876ojo,3tvss0c0e5dq85epqo25oo2qmblwt6,vSDXTnz7,2020-0188,2020-11-17,09:04:42,09:22:57,NA,incomplete,36,number,1,1,left,Red_Plus_Grid_2.jpg,Green_Circle_Dots_2.jpg,Blue_Plus_Stripes_3.jpg,left,860.2950000204146,true,NA,true
vSDXTnz7,3atyli1pswfm29bow6spg463876ojo,3tvss0c0e5dq85epqo25oo2qmblwt6,vSDXTnz7,2020-0188,2020-11-17,09:04:42,09:22:57,NA,incomplete,37,number,1,1,left,Red_Star_Chess_1.jpg,Green_Circle_Stripes_1.jpg,Purple_Star_Dots_2.jpg,left,1217.9500000202097,true,NA,true
vSDXTnz7,3atyli1pswfm29bow6spg463876ojo,3tvss0c0e5dq85epqo25oo2qmblwt6,vSDXTnz7,2020-0188,2020-11-17,09:04:42,09:22:57,NA,incomplete,38,number,1,1,right,Purple_Plus_Stripes_4.jpg,Red_Plus_Dots_1.jpg,Blue_Triangle_Chess_4.jpg,right,906.6050000255927,true,NA,true
vSDXTnz7,3atyli1pswfm29bow6spg463876ojo,3tvss0c0e5dq85epqo25oo2qmblwt6,vSDXTnz7,2020-0188,2020-11-17,09:04:42,09:22:57,NA,incomplete,39,number,1,1,left,Blue_Triangle_Dots_1.jpg,Red_Star_Stripes_1.jpg,Green_Triangle_Grid_3.jpg,left,1043.8699999940582,true,NA,true
vSDXTnz7,3atyli1pswfm29bow6spg463876ojo,3tvss0c0e5dq85epqo25oo2qmblwt6,vSDXTnz7,2020-0188,2020-11-17,09:04:42,09:22:57,NA,incomplete,0,shape,0,0,left,Red_Circle_Grid_2.jpg,Green_Circle_Stripes_3.jpg,Blue_Star_Dots_2.jpg,left,900.5350000225008,true,low,false
vSDXTnz7,3atyli1pswfm29bow6spg463876ojo,3tvss0c0e5dq85epqo25oo2qmblwt6,vSDXTnz7,2020-0188,2020-11-17,09:04:42,09:22:57,NA,incomplete,1,shape,0,1,right,Red_Circle_Stripes_4.jpg,Blue_Star_Dots_4.jpg,Green_Circle_Grid_2.jpg,right,1098.230000003241,true,low,false
vSDXTnz7,3atyli1pswfm29bow6spg463876ojo,3tvss0c0e5dq85epqo25oo2qmblwt6,vSDXTnz7,2020-0188,2020-11-17,09:04:42,09:22:57,NA,incomplete,2,shape,0,1,right,Purple_Circle_Dots_2.jpg,Blue_Star_Stripes_2.jpg,Red_Circle_Chess_4.jpg,right,883.2800000091083,true,low,false
vSDXTnz7,3atyli1pswfm29bow6spg463876ojo,3tvss0c0e5dq85epqo25oo2qmblwt6,vSDXTnz7,2020-0188,2020-11-17,09:04:42,09:22:57,NA,incomplete,3,shape,0,1,right,Red_Circle_Grid_4.jpg,Green_Plus_Stripes_4.jpg,Purple_Circle_Chess_1.jpg,right,723.8050000160001,true,low,false
vSDXTnz7,3atyli1pswfm29bow6spg463876ojo,3tvss0c0e5dq85epqo25oo2qmblwt6,vSDXTnz7,2020-0188,2020-11-17,09:04:42,09:22:57,NA,incomplete,4,shape,0,1,left,Red_Star_Chess_1.jpg,Green_Star_Dots_3.jpg,Purple_Circle_Stripes_1.jpg,left,851.4800000120886,true,low,false
vSDXTnz7,3atyli1pswfm29bow6spg463876ojo,3tvss0c0e5dq85epqo25oo2qmblwt6,vSDXTnz7,2020-0188,2020-11-17,09:04:42,09:22:57,NA,incomplete,5,shape,0,1,left,Blue_Star_Dots_1.jpg,Purple_Star_Grid_3.jpg,Green_Plus_Stripes_1.jpg,left,672.6199999684468,true,low,false
vSDXTnz7,3atyli1pswfm29bow6spg463876ojo,3tvss0c0e5dq85epqo25oo2qmblwt6,vSDXTnz7,2020-0188,2020-11-17,09:04:42,09:22:57,NA,incomplete,6,shape,0,0,right,Purple_Circle_Chess_2.jpg,Blue_Star_Grid_2.jpg,Green_Circle_Stripes_1.jpg,right,776.465000002645,true,low,false
vSDXTnz7,3atyli1pswfm29bow6spg463876ojo,3tvss0c0e5dq85epqo25oo2qmblwt6,vSDXTnz7,2020-0188,2020-11-17,09:04:42,09:22:57,NA,incomplete,7,shape,0,1,right,Blue_Plus_Stripes_4.jpg,Red_Circle_Dots_4.jpg,Purple_Plus_Chess_2.jpg,right,731.969999964349,true,low,false
vSDXTnz7,3atyli1pswfm29bow6spg463876ojo,3tvss0c0e5dq85epqo25oo2qmblwt6,vSDXTnz7,2020-0188,2020-11-17,09:04:42,09:22:57,NA,incomplete,8,shape,0,0,left,Blue_Plus_Grid_2.jpg,Purple_Plus_Stripes_3.jpg,Green_Triangle_Chess_2.jpg,left,855.4049999802373,true,low,false
vSDXTnz7,3atyli1pswfm29bow6spg463876ojo,3tvss0c0e5dq85epqo25oo2qmblwt6,vSDXTnz7,2020-0188,2020-11-17,09:04:42,09:22:57,NA,incomplete,9,shape,0,1,right,Purple_Circle_Chess_1.jpg,Red_Star_Dots_1.jpg,Blue_Circle_Grid_4.jpg,right,620.3550000209361,true,low,false
vSDXTnz7,3atyli1pswfm29bow6spg463876ojo,3tvss0c0e5dq85epqo25oo2qmblwt6,vSDXTnz7,2020-0188,2020-11-17,09:04:42,09:22:57,NA,incomplete,10,number,1,1,left,Blue_Circle_Grid_1.jpg,Green_Star_Chess_1.jpg,Red_Circle_Dots_3.jpg,right,795.0050000217743,false,low,false
vSDXTnz7,3atyli1pswfm29bow6spg463876ojo,3tvss0c0e5dq85epqo25oo2qmblwt6,vSDXTnz7,2020-0188,2020-11-17,09:04:42,09:22:57,NA,incomplete,11,number,1,1,left,Blue_Plus_Dots_2.jpg,Red_Circle_Stripes_2.jpg,Purple_Plus_Grid_3.jpg,right,671.0050000110641,false,low,false
vSDXTnz7,3atyli1pswfm29bow6spg463876ojo,3tvss0c0e5dq85epqo25oo2qmblwt6,vSDXTnz7,2020-0188,2020-11-17,09:04:42,09:22:57,NA,incomplete,12,number,1,1,right,Red_Triangle_Grid_4.jpg,Blue_Triangle_Stripes_2.jpg,Purple_Star_Chess_4.jpg,right,693.3950000093319,true,low,false
vSDXTnz7,3atyli1pswfm29bow6spg463876ojo,3tvss0c0e5dq85epqo25oo2qmblwt6,vSDXTnz7,2020-0188,2020-11-17,09:04:42,09:22:57,NA,incomplete,13,number,1,0,left,Blue_Circle_Stripes_1.jpg,Purple_Plus_Dots_1.jpg,Red_Circle_Grid_4.jpg,left,1061.580000037793,true,low,false
vSDXTnz7,3atyli1pswfm29bow6spg463876ojo,3tvss0c0e5dq85epqo25oo2qmblwt6,vSDXTnz7,2020-0188,2020-11-17,09:04:42,09:22:57,NA,incomplete,14,number,1,1,right,Green_Circle_Grid_4.jpg,Blue_Circle_Chess_2.jpg,Red_Triangle_Dots_4.jpg,right,692.1950000105426,true,low,false
vSDXTnz7,3atyli1pswfm29bow6spg463876ojo,3tvss0c0e5dq85epqo25oo2qmblwt6,vSDXTnz7,2020-0188,2020-11-17,09:04:42,09:22:57,NA,incomplete,15,number,1,1,left,Purple_Plus_Grid_3.jpg,Blue_Triangle_Stripes_3.jpg,Red_Plus_Chess_4.jpg,left,810.9499999554828,true,low,false
vSDXTnz7,3atyli1pswfm29bow6spg463876ojo,3tvss0c0e5dq85epqo25oo2qmblwt6,vSDXTnz7,2020-0188,2020-11-17,09:04:42,09:22:57,NA,incomplete,16,number,1,1,right,Blue_Plus_Dots_1.jpg,Green_Plus_Stripes_4.jpg,Purple_Triangle_Grid_1.jpg,right,574.6199999703094,true,low,false
vSDXTnz7,3atyli1pswfm29bow6spg463876ojo,3tvss0c0e5dq85epqo25oo2qmblwt6,vSDXTnz7,2020-0188,2020-11-17,09:04:42,09:22:57,NA,incomplete,17,number,1,1,left,Purple_Circle_Stripes_4.jpg,Blue_Triangle_Grid_4.jpg,Red_Circle_Chess_1.jpg,left,624.565000005532,true,low,false
vSDXTnz7,3atyli1pswfm29bow6spg463876ojo,3tvss0c0e5dq85epqo25oo2qmblwt6,vSDXTnz7,2020-0188,2020-11-17,09:04:42,09:22:57,NA,incomplete,18,number,1,1,left,Purple_Circle_Grid_4.jpg,Blue_Star_Stripes_4.jpg,Green_Circle_Chess_2.jpg,left,910.0800000014715,true,low,false
vSDXTnz7,3atyli1pswfm29bow6spg463876ojo,3tvss0c0e5dq85epqo25oo2qmblwt6,vSDXTnz7,2020-0188,2020-11-17,09:04:42,09:22:57,NA,incomplete,19,number,1,1,right,Purple_Star_Chess_2.jpg,Red_Star_Dots_1.jpg,Green_Plus_Stripes_2.jpg,right,818.3950000093319,true,low,false
vSDXTnz7,3atyli1pswfm29bow6spg463876ojo,3tvss0c0e5dq85epqo25oo2qmblwt6,vSDXTnz7,2020-0188,2020-11-17,09:04:42,09:22:57,NA,incomplete,20,shape,0,1,left,Blue_Circle_Stripes_4.jpg,Purple_Circle_Dots_2.jpg,Red_Plus_Chess_4.jpg,right,853.2649999833666,false,low,false
vSDXTnz7,3atyli1pswfm29bow6spg463876ojo,3tvss0c0e5dq85epqo25oo2qmblwt6,vSDXTnz7,2020-0188,2020-11-17,09:04:42,09:22:57,NA,incomplete,21,shape,0,1,right,Green_Plus_Chess_2.jpg,Blue_Star_Grid_2.jpg,Red_Plus_Dots_1.jpg,left,723.8449999713339,false,low,false
vSDXTnz7,3atyli1pswfm29bow6spg463876ojo,3tvss0c0e5dq85epqo25oo2qmblwt6,vSDXTnz7,2020-0188,2020-11-17,09:04:42,09:22:57,NA,incomplete,22,shape,0,0,left,Blue_Star_Grid_3.jpg,Purple_Star_Chess_1.jpg,Red_Plus_Stripes_3.jpg,right,676.2599999783561,false,low,false
vSDXTnz7,3atyli1pswfm29bow6spg463876ojo,3tvss0c0e5dq85epqo25oo2qmblwt6,vSDXTnz7,2020-0188,2020-11-17,09:04:42,09:22:57,NA,incomplete,23,shape,0,0,left,Green_Triangle_Stripes_1.jpg,Purple_Triangle_Grid_4.jpg,Red_Plus_Chess_1.jpg,right,641.9299999834038,false,low,false
vSDXTnz7,3atyli1pswfm29bow6spg463876ojo,3tvss0c0e5dq85epqo25oo2qmblwt6,vSDXTnz7,2020-0188,2020-11-17,09:04:42,09:22:57,NA,incomplete,24,shape,0,1,right,Purple_Circle_Grid_3.jpg,Red_Plus_Stripes_3.jpg,Green_Circle_Chess_1.jpg,left,581.5300000249408,false,low,false
vSDXTnz7,3atyli1pswfm29bow6spg463876ojo,3tvss0c0e5dq85epqo25oo2qmblwt6,vSDXTnz7,2020-0188,2020-11-17,09:04:42,09:22:57,NA,incomplete,25,shape,0,1,left,Green_Plus_Stripes_2.jpg,Red_Plus_Chess_4.jpg,Blue_Circle_Dots_2.jpg,right,679.7699999879114,false,low,false
vSDXTnz7,3atyli1pswfm29bow6spg463876ojo,3tvss0c0e5dq85epqo25oo2qmblwt6,vSDXTnz7,2020-0188,2020-11-17,09:04:42,09:22:57,NA,incomplete,26,shape,0,0,right,Purple_Triangle_Grid_1.jpg,Blue_Circle_Chess_1.jpg,Red_Triangle_Dots_2.jpg,left,506.6050000023097,false,low,false
vSDXTnz7,3atyli1pswfm29bow6spg463876ojo,3tvss0c0e5dq85epqo25oo2qmblwt6,vSDXTnz7,2020-0188,2020-11-17,09:04:42,09:22:57,NA,incomplete,27,shape,0,0,left,Green_Circle_Stripes_4.jpg,Purple_Circle_Dots_2.jpg,Red_Triangle_Grid_4.jpg,right,650.5900000338443,false,low,false
vSDXTnz7,3atyli1pswfm29bow6spg463876ojo,3tvss0c0e5dq85epqo25oo2qmblwt6,vSDXTnz7,2020-0188,2020-11-17,09:04:42,09:22:57,NA,incomplete,28,shape,0,0,left,Red_Circle_Chess_3.jpg,Green_Circle_Grid_2.jpg,Blue_Plus_Dots_3.jpg,right,738.6950000072829,false,low,false
vSDXTnz7,3atyli1pswfm29bow6spg463876ojo,3tvss0c0e5dq85epqo25oo2qmblwt6,vSDXTnz7,2020-0188,2020-11-17,09:04:42,09:22:57,NA,incomplete,29,shape,0,1,left,Blue_Star_Chess_3.jpg,Purple_Star_Grid_2.jpg,Green_Plus_Dots_3.jpg,right,657.9950000159442,false,low,false
vSDXTnz7,3atyli1pswfm29bow6spg463876ojo,3tvss0c0e5dq85epqo25oo2qmblwt6,vSDXTnz7,2020-0188,2020-11-17,09:04:42,09:22:57,NA,incomplete,30,number,1,1,right,Blue_Circle_Chess_2.jpg,Green_Circle_Grid_3.jpg,Purple_Triangle_Stripes_2.jpg,right,771.2150000152178,true,low,false
vSDXTnz7,3atyli1pswfm29bow6spg463876ojo,3tvss0c0e5dq85epqo25oo2qmblwt6,vSDXTnz7,2020-0188,2020-11-17,09:04:42,09:22:57,NA,incomplete,31,number,1,1,left,Blue_Plus_Stripes_3.jpg,Green_Star_Chess_3.jpg,Red_Plus_Grid_4.jpg,left,871.6249999706633,true,low,false
vSDXTnz7,3atyli1pswfm29bow6spg463876ojo,3tvss0c0e5dq85epqo25oo2qmblwt6,vSDXTnz7,2020-0188,2020-11-17,09:04:42,09:22:57,NA,incomplete,32,number,1,1,right,Purple_Triangle_Chess_4.jpg,Blue_Triangle_Dots_3.jpg,Green_Star_Grid_4.jpg,right,775.7449999917299,true,low,false
vSDXTnz7,3atyli1pswfm29bow6spg463876ojo,3tvss0c0e5dq85epqo25oo2qmblwt6,vSDXTnz7,2020-0188,2020-11-17,09:04:42,09:22:57,NA,incomplete,33,number,1,1,left,Purple_Star_Grid_1.jpg,Red_Triangle_Stripes_1.jpg,Green_Star_Dots_2.jpg,left,747.8850000188686,true,low,false
vSDXTnz7,3atyli1pswfm29bow6spg463876ojo,3tvss0c0e5dq85epqo25oo2qmblwt6,vSDXTnz7,2020-0188,2020-11-17,09:04:42,09:22:57,NA,incomplete,34,number,1,1,right,Blue_Plus_Grid_4.jpg,Purple_Plus_Stripes_3.jpg,Red_Circle_Dots_4.jpg,right,979.4700000202283,true,low,false
vSDXTnz7,3atyli1pswfm29bow6spg463876ojo,3tvss0c0e5dq85epqo25oo2qmblwt6,vSDXTnz7,2020-0188,2020-11-17,09:04:42,09:22:57,NA,incomplete,35,number,1,1,left,Blue_Star_Dots_3.jpg,Red_Plus_Grid_3.jpg,Green_Star_Chess_1.jpg,left,752.5900000473484,true,low,false
vSDXTnz7,3atyli1pswfm29bow6spg463876ojo,3tvss0c0e5dq85epqo25oo2qmblwt6,vSDXTnz7,2020-0188,2020-11-17,09:04:42,09:22:57,NA,incomplete,36,number,1,1,left,Blue_Circle_Dots_3.jpg,Green_Star_Grid_3.jpg,Purple_Circle_Chess_1.jpg,left,681.3949999632314,true,low,false
vSDXTnz7,3atyli1pswfm29bow6spg463876ojo,3tvss0c0e5dq85epqo25oo2qmblwt6,vSDXTnz7,2020-0188,2020-11-17,09:04:42,09:22:57,NA,incomplete,37,number,1,1,left,Purple_Star_Chess_3.jpg,Blue_Plus_Stripes_3.jpg,Green_Star_Grid_1.jpg,left,664.3000000040047,true,low,false
vSDXTnz7,3atyli1pswfm29bow6spg463876ojo,3tvss0c0e5dq85epqo25oo2qmblwt6,vSDXTnz7,2020-0188,2020-11-17,09:04:42,09:22:57,NA,incomplete,38,number,1,1,right,Red_Star_Dots_4.jpg,Blue_Star_Grid_3.jpg,Purple_Circle_Stripes_4.jpg,right,765.0550000253133,true,low,false
vSDXTnz7,3atyli1pswfm29bow6spg463876ojo,3tvss0c0e5dq85epqo25oo2qmblwt6,vSDXTnz7,2020-0188,2020-11-17,09:04:42,09:22:57,NA,incomplete,39,number,1,0,left,Red_Plus_Dots_3.jpg,Purple_Triangle_Grid_3.jpg,Blue_Plus_Stripes_2.jpg,left,1018.2800000184216,true,low,false
vSDXTnz7,3atyli1pswfm29bow6spg463876ojo,3tvss0c0e5dq85epqo25oo2qmblwt6,vSDXTnz7,2020-0188,2020-11-17,09:04:42,09:22:57,NA,incomplete,40,shape,0,1,right,Red_Circle_Grid_3.jpg,Blue_Star_Stripes_3.jpg,Green_Circle_Dots_2.jpg,left,675.9650000021793,false,low,false
vSDXTnz7,3atyli1pswfm29bow6spg463876ojo,3tvss0c0e5dq85epqo25oo2qmblwt6,vSDXTnz7,2020-0188,2020-11-17,09:04:42,09:22:57,NA,incomplete,41,shape,0,1,right,Purple_Triangle_Chess_1.jpg,Red_Plus_Dots_1.jpg,Green_Triangle_Grid_3.jpg,left,776.9049999769777,false,low,false
vSDXTnz7,3atyli1pswfm29bow6spg463876ojo,3tvss0c0e5dq85epqo25oo2qmblwt6,vSDXTnz7,2020-0188,2020-11-17,09:04:42,09:22:57,NA,incomplete,42,shape,0,0,left,Green_Circle_Dots_2.jpg,Red_Circle_Stripes_1.jpg,Blue_Triangle_Chess_2.jpg,left,856.4899999764748,true,low,false
vSDXTnz7,3atyli1pswfm29bow6spg463876ojo,3tvss0c0e5dq85epqo25oo2qmblwt6,vSDXTnz7,2020-0188,2020-11-17,09:04:42,09:22:57,NA,incomplete,43,shape,0,1,right,Red_Triangle_Stripes_3.jpg,Purple_Plus_Chess_3.jpg,Green_Triangle_Dots_4.jpg,right,775.8299999986775,true,low,false
vSDXTnz7,3atyli1pswfm29bow6spg463876ojo,3tvss0c0e5dq85epqo25oo2qmblwt6,vSDXTnz7,2020-0188,2020-11-17,09:04:42,09:22:57,NA,incomplete,44,shape,0,1,right,Purple_Plus_Grid_4.jpg,Blue_Triangle_Stripes_4.jpg,Red_Plus_Chess_1.jpg,right,767.9800000041723,true,low,false
vSDXTnz7,3atyli1pswfm29bow6spg463876ojo,3tvss0c0e5dq85epqo25oo2qmblwt6,vSDXTnz7,2020-0188,2020-11-17,09:04:42,09:22:57,NA,incomplete,45,shape,0,1,right,Blue_Star_Dots_1.jpg,Red_Circle_Chess_1.jpg,Purple_Star_Grid_2.jpg,right,713.1949999602512,true,low,false
vSDXTnz7,3atyli1pswfm29bow6spg463876ojo,3tvss0c0e5dq85epqo25oo2qmblwt6,vSDXTnz7,2020-0188,2020-11-17,09:04:42,09:22:57,NA,incomplete,46,shape,0,1,left,Red_Circle_Stripes_4.jpg,Blue_Circle_Chess_2.jpg,Green_Triangle_Dots_4.jpg,left,747.5350000313483,true,low,false
vSDXTnz7,3atyli1pswfm29bow6spg463876ojo,3tvss0c0e5dq85epqo25oo2qmblwt6,vSDXTnz7,2020-0188,2020-11-17,09:04:42,09:22:57,NA,incomplete,47,shape,0,1,left,Red_Triangle_Stripes_3.jpg,Blue_Triangle_Chess_1.jpg,Green_Plus_Grid_3.jpg,left,949.8650000314228,true,low,false
vSDXTnz7,3atyli1pswfm29bow6spg463876ojo,3tvss0c0e5dq85epqo25oo2qmblwt6,vSDXTnz7,2020-0188,2020-11-17,09:04:42,09:22:57,NA,incomplete,48,shape,0,1,left,Green_Plus_Dots_4.jpg,Red_Plus_Grid_2.jpg,Blue_Star_Stripes_4.jpg,left,934.2049999977462,true,low,false
vSDXTnz7,3atyli1pswfm29bow6spg463876ojo,3tvss0c0e5dq85epqo25oo2qmblwt6,vSDXTnz7,2020-0188,2020-11-17,09:04:42,09:22:57,NA,incomplete,49,shape,0,1,left,Purple_Plus_Grid_1.jpg,Green_Plus_Dots_2.jpg,Blue_Star_Stripes_1.jpg,right,1013.7649999815039,false,low,false
vSDXTnz7,3atyli1pswfm29bow6spg463876ojo,3tvss0c0e5dq85epqo25oo2qmblwt6,vSDXTnz7,2020-0188,2020-11-17,09:04:42,09:22:57,NA,incomplete,50,number,1,1,right,Purple_Star_Dots_4.jpg,Red_Star_Grid_1.jpg,Green_Circle_Stripes_4.jpg,left,769.7299999999814,false,low,false
vSDXTnz7,3atyli1pswfm29bow6spg463876ojo,3tvss0c0e5dq85epqo25oo2qmblwt6,vSDXTnz7,2020-0188,2020-11-17,09:04:42,09:22:57,NA,incomplete,51,number,1,1,right,Blue_Circle_Chess_1.jpg,Red_Circle_Stripes_3.jpg,Purple_Triangle_Grid_1.jpg,left,858.1700000213459,false,low,false
vSDXTnz7,3atyli1pswfm29bow6spg463876ojo,3tvss0c0e5dq85epqo25oo2qmblwt6,vSDXTnz7,2020-0188,2020-11-17,09:04:42,09:22:57,NA,incomplete,52,number,1,0,right,Purple_Star_Dots_4.jpg,Blue_Star_Chess_3.jpg,Green_Circle_Grid_4.jpg,left,925.9849999798462,false,low,false
vSDXTnz7,3atyli1pswfm29bow6spg463876ojo,3tvss0c0e5dq85epqo25oo2qmblwt6,vSDXTnz7,2020-0188,2020-11-17,09:04:42,09:22:57,NA,incomplete,53,number,1,1,left,Purple_Plus_Stripes_1.jpg,Green_Triangle_Chess_1.jpg,Blue_Plus_Grid_3.jpg,right,621.930000022985,false,low,false
vSDXTnz7,3atyli1pswfm29bow6spg463876ojo,3tvss0c0e5dq85epqo25oo2qmblwt6,vSDXTnz7,2020-0188,2020-11-17,09:04:42,09:22:57,NA,incomplete,54,number,1,1,left,Blue_Triangle_Dots_4.jpg,Purple_Plus_Chess_4.jpg,Green_Triangle_Stripes_1.jpg,right,647.0799999660812,false,low,false
vSDXTnz7,3atyli1pswfm29bow6spg463876ojo,3tvss0c0e5dq85epqo25oo2qmblwt6,vSDXTnz7,2020-0188,2020-11-17,09:04:42,09:22:57,NA,incomplete,55,number,1,1,left,Purple_Circle_Dots_4.jpg,Red_Plus_Grid_4.jpg,Green_Circle_Stripes_2.jpg,left,703.5550000146031,true,low,false
vSDXTnz7,3atyli1pswfm29bow6spg463876ojo,3tvss0c0e5dq85epqo25oo2qmblwt6,vSDXTnz7,2020-0188,2020-11-17,09:04:42,09:22:57,NA,incomplete,56,number,1,1,right,Red_Plus_Dots_3.jpg,Purple_Plus_Stripes_2.jpg,Green_Triangle_Grid_3.jpg,right,594.7650000452995,true,low,false
vSDXTnz7,3atyli1pswfm29bow6spg463876ojo,3tvss0c0e5dq85epqo25oo2qmblwt6,vSDXTnz7,2020-0188,2020-11-17,09:04:42,09:22:57,NA,incomplete,57,number,1,1,right,Purple_Triangle_Stripes_2.jpg,Green_Triangle_Grid_1.jpg,Red_Plus_Dots_2.jpg,left,596.7299999902025,false,low,false
vSDXTnz7,3atyli1pswfm29bow6spg463876ojo,3tvss0c0e5dq85epqo25oo2qmblwt6,vSDXTnz7,2020-0188,2020-11-17,09:04:42,09:22:57,NA,incomplete,58,number,1,1,right,Red_Triangle_Dots_4.jpg,Blue_Triangle_Chess_3.jpg,Purple_Circle_Grid_4.jpg,right,786.2549999845214,true,low,false
vSDXTnz7,3atyli1pswfm29bow6spg463876ojo,3tvss0c0e5dq85epqo25oo2qmblwt6,vSDXTnz7,2020-0188,2020-11-17,09:04:42,09:22:57,NA,incomplete,59,number,1,1,left,Red_Triangle_Dots_1.jpg,Purple_Circle_Stripes_1.jpg,Green_Triangle_Grid_2.jpg,left,692.5300000002608,true,low,false
vSDXTnz7,3atyli1pswfm29bow6spg463876ojo,3tvss0c0e5dq85epqo25oo2qmblwt6,vSDXTnz7,2020-0188,2020-11-17,09:04:42,09:22:57,NA,incomplete,60,shape,0,0,left,Blue_Triangle_Dots_4.jpg,Red_Triangle_Stripes_3.jpg,Green_Star_Grid_4.jpg,right,645.1150000211783,false,low,false
vSDXTnz7,3atyli1pswfm29bow6spg463876ojo,3tvss0c0e5dq85epqo25oo2qmblwt6,vSDXTnz7,2020-0188,2020-11-17,09:04:42,09:22:57,NA,incomplete,61,shape,0,1,left,Blue_Circle_Stripes_3.jpg,Purple_Circle_Dots_1.jpg,Green_Triangle_Chess_3.jpg,right,637.9449999658391,false,low,false
vSDXTnz7,3atyli1pswfm29bow6spg463876ojo,3tvss0c0e5dq85epqo25oo2qmblwt6,vSDXTnz7,2020-0188,2020-11-17,09:04:42,09:22:57,NA,incomplete,62,shape,0,1,right,Green_Circle_Grid_4.jpg,Purple_Triangle_Dots_4.jpg,Blue_Circle_Chess_3.jpg,left,680.2250000182539,false,low,false
vSDXTnz7,3atyli1pswfm29bow6spg463876ojo,3tvss0c0e5dq85epqo25oo2qmblwt6,vSDXTnz7,2020-0188,2020-11-17,09:04:42,09:22:57,NA,incomplete,63,shape,0,1,left,Purple_Star_Chess_4.jpg,Red_Star_Stripes_3.jpg,Blue_Triangle_Grid_4.jpg,right,736.9049999979325,false,low,false
vSDXTnz7,3atyli1pswfm29bow6spg463876ojo,3tvss0c0e5dq85epqo25oo2qmblwt6,vSDXTnz7,2020-0188,2020-11-17,09:04:42,09:22:57,NA,incomplete,64,shape,0,1,left,Red_Star_Stripes_2.jpg,Purple_Star_Grid_3.jpg,Blue_Triangle_Chess_2.jpg,left,813.640000007581,true,low,false
vSDXTnz7,3atyli1pswfm29bow6spg463876ojo,3tvss0c0e5dq85epqo25oo2qmblwt6,vSDXTnz7,2020-0188,2020-11-17,09:04:42,09:22:57,NA,incomplete,65,shape,0,0,right,Purple_Circle_Dots_4.jpg,Green_Star_Chess_4.jpg,Blue_Circle_Stripes_2.jpg,right,651.4450000249781,true,low,false
vSDXTnz7,3atyli1pswfm29bow6spg463876ojo,3tvss0c0e5dq85epqo25oo2qmblwt6,vSDXTnz7,2020-0188,2020-11-17,09:04:42,09:22:57,NA,incomplete,66,shape,0,1,left,Purple_Triangle_Dots_1.jpg,Red_Triangle_Grid_2.jpg,Blue_Plus_Chess_1.jpg,left,800.3950000274926,true,low,false
vSDXTnz7,3atyli1pswfm29bow6spg463876ojo,3tvss0c0e5dq85epqo25oo2qmblwt6,vSDXTnz7,2020-0188,2020-11-17,09:04:42,09:22:57,NA,incomplete,67,shape,0,1,right,Blue_Plus_Stripes_1.jpg,Green_Star_Chess_1.jpg,Red_Plus_Grid_4.jpg,right,663.219999987632,true,low,false
vSDXTnz7,3atyli1pswfm29bow6spg463876ojo,3tvss0c0e5dq85epqo25oo2qmblwt6,vSDXTnz7,2020-0188,2020-11-17,09:04:42,09:22:57,NA,incomplete,68,shape,0,1,left,Green_Star_Dots_3.jpg,Red_Star_Chess_1.jpg,Purple_Triangle_Grid_3.jpg,left,847.1549999667332,true,low,false
vSDXTnz7,3atyli1pswfm29bow6spg463876ojo,3tvss0c0e5dq85epqo25oo2qmblwt6,vSDXTnz7,2020-0188,2020-11-17,09:04:42,09:22:57,NA,incomplete,69,shape,0,1,right,Blue_Plus_Dots_1.jpg,Purple_Triangle_Grid_1.jpg,Green_Plus_Stripes_2.jpg,right,593.4849999612197,true,low,false
vSDXTnz7,3atyli1pswfm29bow6spg463876ojo,3tvss0c0e5dq85epqo25oo2qmblwt6,vSDXTnz7,2020-0188,2020-11-17,09:04:42,09:22:57,NA,incomplete,70,number,1,1,left,Blue_Triangle_Grid_4.jpg,Green_Circle_Dots_4.jpg,Purple_Triangle_Stripes_2.jpg,right,811.9200000073761,false,low,false
vSDXTnz7,3atyli1pswfm29bow6spg463876ojo,3tvss0c0e5dq85epqo25oo2qmblwt6,vSDXTnz7,2020-0188,2020-11-17,09:04:42,09:22:57,NA,incomplete,71,number,1,1,right,Green_Triangle_Chess_2.jpg,Red_Triangle_Dots_3.jpg,Blue_Star_Grid_2.jpg,left,796.7199999839067,false,low,false
vSDXTnz7,3atyli1pswfm29bow6spg463876ojo,3tvss0c0e5dq85epqo25oo2qmblwt6,vSDXTnz7,2020-0188,2020-11-17,09:04:42,09:22:57,NA,incomplete,72,number,1,0,right,Green_Circle_Stripes_3.jpg,Purple_Circle_Chess_2.jpg,Red_Star_Grid_3.jpg,left,704.5500000240281,false,low,false
vSDXTnz7,3atyli1pswfm29bow6spg463876ojo,3tvss0c0e5dq85epqo25oo2qmblwt6,vSDXTnz7,2020-0188,2020-11-17,09:04:42,09:22:57,NA,incomplete,73,number,1,0,left,Purple_Star_Grid_4.jpg,Green_Circle_Dots_4.jpg,Blue_Star_Chess_1.jpg,right,703.9099999819882,false,low,false
vSDXTnz7,3atyli1pswfm29bow6spg463876ojo,3tvss0c0e5dq85epqo25oo2qmblwt6,vSDXTnz7,2020-0188,2020-11-17,09:04:42,09:22:57,NA,incomplete,74,number,1,1,left,Blue_Circle_Dots_3.jpg,Purple_Star_Chess_3.jpg,Green_Circle_Grid_4.jpg,right,870.48500002129,false,low,false
vSDXTnz7,3atyli1pswfm29bow6spg463876ojo,3tvss0c0e5dq85epqo25oo2qmblwt6,vSDXTnz7,2020-0188,2020-11-17,09:04:42,09:22:57,NA,incomplete,75,number,1,1,right,Green_Circle_Dots_2.jpg,Red_Circle_Stripes_1.jpg,Purple_Star_Chess_2.jpg,left,764.2600000253879,false,low,false
vSDXTnz7,3atyli1pswfm29bow6spg463876ojo,3tvss0c0e5dq85epqo25oo2qmblwt6,vSDXTnz7,2020-0188,2020-11-17,09:04:42,09:22:57,NA,incomplete,76,number,1,0,right,Green_Star_Chess_3.jpg,Purple_Star_Stripes_4.jpg,Red_Triangle_Dots_3.jpg,left,773.8450000179,false,low,false
vSDXTnz7,3atyli1pswfm29bow6spg463876ojo,3tvss0c0e5dq85epqo25oo2qmblwt6,vSDXTnz7,2020-0188,2020-11-17,09:04:42,09:22:57,NA,incomplete,77,number,1,1,right,Red_Plus_Chess_2.jpg,Purple_Plus_Dots_3.jpg,Green_Triangle_Grid_2.jpg,left,771.5699999826029,false,low,false
vSDXTnz7,3atyli1pswfm29bow6spg463876ojo,3tvss0c0e5dq85epqo25oo2qmblwt6,vSDXTnz7,2020-0188,2020-11-17,09:04:42,09:22:57,NA,incomplete,78,number,1,1,right,Red_Plus_Dots_1.jpg,Purple_Plus_Stripes_3.jpg,Green_Triangle_Chess_1.jpg,left,747.8500000433996,false,low,false
vSDXTnz7,3atyli1pswfm29bow6spg463876ojo,3tvss0c0e5dq85epqo25oo2qmblwt6,vSDXTnz7,2020-0188,2020-11-17,09:04:42,09:22:57,NA,incomplete,79,number,1,0,right,Purple_Star_Grid_4.jpg,Green_Star_Chess_2.jpg,Red_Plus_Stripes_4.jpg,right,660.0500000058673,true,low,false
vSDXTnz7,3atyli1pswfm29bow6spg463876ojo,3tvss0c0e5dq85epqo25oo2qmblwt6,vSDXTnz7,2020-0188,2020-11-17,09:04:42,09:22:57,NA,incomplete,80,shape,0,1,right,Green_Circle_Stripes_3.jpg,Red_Triangle_Chess_3.jpg,Blue_Circle_Dots_1.jpg,left,644.449999963399,false,low,false
vSDXTnz7,3atyli1pswfm29bow6spg463876ojo,3tvss0c0e5dq85epqo25oo2qmblwt6,vSDXTnz7,2020-0188,2020-11-17,09:04:42,09:22:57,NA,incomplete,81,shape,0,1,left,Red_Star_Grid_4.jpg,Green_Star_Chess_1.jpg,Blue_Triangle_Stripes_4.jpg,right,610.5399999651127,false,low,false
vSDXTnz7,3atyli1pswfm29bow6spg463876ojo,3tvss0c0e5dq85epqo25oo2qmblwt6,vSDXTnz7,2020-0188,2020-11-17,09:04:42,09:22:57,NA,incomplete,82,shape,0,1,left,Red_Triangle_Dots_2.jpg,Purple_Triangle_Stripes_4.jpg,Blue_Star_Grid_2.jpg,left,627.9999999678694,true,low,false
vSDXTnz7,3atyli1pswfm29bow6spg463876ojo,3tvss0c0e5dq85epqo25oo2qmblwt6,vSDXTnz7,2020-0188,2020-11-17,09:04:42,09:22:57,NA,incomplete,83,shape,0,1,left,Blue_Star_Grid_1.jpg,Green_Star_Dots_4.jpg,Red_Circle_Stripes_1.jpg,left,642.2200000379235,true,low,false
vSDXTnz7,3atyli1pswfm29bow6spg463876ojo,3tvss0c0e5dq85epqo25oo2qmblwt6,vSDXTnz7,2020-0188,2020-11-17,09:04:42,09:22:57,NA,incomplete,84,shape,0,0,right,Green_Circle_Grid_2.jpg,Purple_Triangle_Chess_2.jpg,Red_Circle_Stripes_1.jpg,right,866.440000012517,true,low,false
vSDXTnz7,3atyli1pswfm29bow6spg463876ojo,3tvss0c0e5dq85epqo25oo2qmblwt6,vSDXTnz7,2020-0188,2020-11-17,09:04:42,09:22:57,NA,incomplete,85,shape,0,1,right,Purple_Circle_Dots_1.jpg,Blue_Star_Stripes_1.jpg,Green_Circle_Grid_3.jpg,right,786.3049999577925,true,low,false
vSDXTnz7,3atyli1pswfm29bow6spg463876ojo,3tvss0c0e5dq85epqo25oo2qmblwt6,vSDXTnz7,2020-0188,2020-11-17,09:04:42,09:22:57,NA,incomplete,86,shape,0,1,left,Green_Circle_Grid_2.jpg,Purple_Circle_Stripes_3.jpg,Red_Triangle_Chess_2.jpg,left,760.4500000015832,true,low,false
vSDXTnz7,3atyli1pswfm29bow6spg463876ojo,3tvss0c0e5dq85epqo25oo2qmblwt6,vSDXTnz7,2020-0188,2020-11-17,09:04:42,09:22:57,NA,incomplete,87,shape,0,1,right,Purple_Circle_Dots_1.jpg,Green_Plus_Grid_1.jpg,Red_Circle_Chess_3.jpg,right,783.095000020694,true,low,false
vSDXTnz7,3atyli1pswfm29bow6spg463876ojo,3tvss0c0e5dq85epqo25oo2qmblwt6,vSDXTnz7,2020-0188,2020-11-17,09:04:42,09:22:57,NA,incomplete,88,shape,0,1,right,Blue_Plus_Grid_3.jpg,Green_Circle_Dots_3.jpg,Red_Plus_Stripes_4.jpg,right,763.7400000239722,true,low,false
vSDXTnz7,3atyli1pswfm29bow6spg463876ojo,3tvss0c0e5dq85epqo25oo2qmblwt6,vSDXTnz7,2020-0188,2020-11-17,09:04:42,09:22:57,NA,incomplete,89,shape,0,1,right,Green_Circle_Chess_2.jpg,Blue_Star_Dots_2.jpg,Purple_Circle_Stripes_4.jpg,right,656.3699999824166,true,low,false
vSDXTnz7,3atyli1pswfm29bow6spg463876ojo,3tvss0c0e5dq85epqo25oo2qmblwt6,vSDXTnz7,2020-0188,2020-11-17,09:04:42,09:22:57,NA,incomplete,90,number,1,0,right,Green_Triangle_Stripes_1.jpg,Red_Triangle_Grid_2.jpg,Blue_Plus_Chess_1.jpg,left,900.4299999796785,false,low,false
vSDXTnz7,3atyli1pswfm29bow6spg463876ojo,3tvss0c0e5dq85epqo25oo2qmblwt6,vSDXTnz7,2020-0188,2020-11-17,09:04:42,09:22:57,NA,incomplete,91,number,1,1,left,Blue_Triangle_Dots_1.jpg,Purple_Plus_Grid_1.jpg,Green_Triangle_Stripes_4.jpg,right,659.7199999960139,false,low,false
vSDXTnz7,3atyli1pswfm29bow6spg463876ojo,3tvss0c0e5dq85epqo25oo2qmblwt6,vSDXTnz7,2020-0188,2020-11-17,09:04:42,09:22:57,NA,incomplete,92,number,1,1,left,Purple_Triangle_Stripes_4.jpg,Red_Circle_Dots_4.jpg,Blue_Triangle_Grid_2.jpg,right,844.794999982696,false,low,false
vSDXTnz7,3atyli1pswfm29bow6spg463876ojo,3tvss0c0e5dq85epqo25oo2qmblwt6,vSDXTnz7,2020-0188,2020-11-17,09:04:42,09:22:57,NA,incomplete,93,number,1,1,right,Red_Star_Dots_2.jpg,Green_Star_Grid_3.jpg,Purple_Triangle_Stripes_2.jpg,left,743.529999977909,false,low,false
vSDXTnz7,3atyli1pswfm29bow6spg463876ojo,3tvss0c0e5dq85epqo25oo2qmblwt6,vSDXTnz7,2020-0188,2020-11-17,09:04:42,09:22:57,NA,incomplete,94,number,1,1,right,Blue_Plus_Chess_2.jpg,Green_Plus_Stripes_3.jpg,Purple_Circle_Dots_2.jpg,left,1444.9249999597669,false,low,false
vSDXTnz7,3atyli1pswfm29bow6spg463876ojo,3tvss0c0e5dq85epqo25oo2qmblwt6,vSDXTnz7,2020-0188,2020-11-17,09:04:42,09:22:57,NA,incomplete,95,number,1,1,right,Red_Circle_Chess_2.jpg,Purple_Circle_Stripes_4.jpg,Green_Star_Grid_2.jpg,right,860.5650000390597,true,low,false
vSDXTnz7,3atyli1pswfm29bow6spg463876ojo,3tvss0c0e5dq85epqo25oo2qmblwt6,vSDXTnz7,2020-0188,2020-11-17,09:04:42,09:22:57,NA,incomplete,96,number,1,0,right,Green_Circle_Stripes_4.jpg,Blue_Circle_Dots_3.jpg,Purple_Star_Chess_4.jpg,right,673.624999995809,true,low,false
vSDXTnz7,3atyli1pswfm29bow6spg463876ojo,3tvss0c0e5dq85epqo25oo2qmblwt6,vSDXTnz7,2020-0188,2020-11-17,09:04:42,09:22:57,NA,incomplete,97,number,1,1,right,Purple_Star_Chess_1.jpg,Blue_Star_Stripes_4.jpg,Red_Plus_Dots_1.jpg,right,793.839999998454,true,low,false
vSDXTnz7,3atyli1pswfm29bow6spg463876ojo,3tvss0c0e5dq85epqo25oo2qmblwt6,vSDXTnz7,2020-0188,2020-11-17,09:04:42,09:22:57,NA,incomplete,98,number,1,1,left,Blue_Star_Chess_1.jpg,Green_Circle_Stripes_1.jpg,Red_Star_Grid_3.jpg,left,886.2000000081025,true,low,false
vSDXTnz7,3atyli1pswfm29bow6spg463876ojo,3tvss0c0e5dq85epqo25oo2qmblwt6,vSDXTnz7,2020-0188,2020-11-17,09:04:42,09:22:57,NA,incomplete,99,number,1,0,right,Purple_Circle_Dots_3.jpg,Red_Circle_Stripes_1.jpg,Blue_Triangle_Chess_3.jpg,right,697.3199999774806,true,low,false
vSDXTnz7,3atyli1pswfm29bow6spg463876ojo,3tvss0c0e5dq85epqo25oo2qmblwt6,vSDXTnz7,2020-0188,2020-11-17,09:04:42,09:22:57,NA,incomplete,100,shape,0,1,left,Purple_Star_Stripes_1.jpg,Green_Star_Chess_3.jpg,Red_Circle_Dots_1.jpg,right,647.7299999678507,false,low,false
vSDXTnz7,3atyli1pswfm29bow6spg463876ojo,3tvss0c0e5dq85epqo25oo2qmblwt6,vSDXTnz7,2020-0188,2020-11-17,09:04:42,09:22:57,NA,incomplete,101,shape,0,0,left,Blue_Star_Stripes_3.jpg,Purple_Star_Dots_2.jpg,Green_Triangle_Grid_3.jpg,right,707.6249999809079,false,low,false
vSDXTnz7,3atyli1pswfm29bow6spg463876ojo,3tvss0c0e5dq85epqo25oo2qmblwt6,vSDXTnz7,2020-0188,2020-11-17,09:04:42,09:22:57,NA,incomplete,102,shape,0,0,right,Red_Star_Dots_2.jpg,Blue_Triangle_Grid_2.jpg,Green_Star_Stripes_1.jpg,left,920.7849999656901,false,low,false
vSDXTnz7,3atyli1pswfm29bow6spg463876ojo,3tvss0c0e5dq85epqo25oo2qmblwt6,vSDXTnz7,2020-0188,2020-11-17,09:04:42,09:22:57,NA,incomplete,103,shape,0,1,right,Green_Plus_Stripes_1.jpg,Red_Star_Dots_1.jpg,Blue_Plus_Chess_4.jpg,left,890.1549999718554,false,low,false
vSDXTnz7,3atyli1pswfm29bow6spg463876ojo,3tvss0c0e5dq85epqo25oo2qmblwt6,vSDXTnz7,2020-0188,2020-11-17,09:04:42,09:22:57,NA,incomplete,104,shape,0,1,left,Green_Star_Grid_3.jpg,Red_Star_Dots_1.jpg,Blue_Circle_Stripes_3.jpg,right,603.5549999796785,false,low,false
vSDXTnz7,3atyli1pswfm29bow6spg463876ojo,3tvss0c0e5dq85epqo25oo2qmblwt6,vSDXTnz7,2020-0188,2020-11-17,09:04:42,09:22:57,NA,incomplete,105,shape,0,1,right,Red_Triangle_Chess_2.jpg,Purple_Circle_Stripes_2.jpg,Green_Triangle_Dots_3.jpg,right,703.0650000087917,true,low,false
vSDXTnz7,3atyli1pswfm29bow6spg463876ojo,3tvss0c0e5dq85epqo25oo2qmblwt6,vSDXTnz7,2020-0188,2020-11-17,09:04:42,09:22:57,NA,incomplete,106,shape,0,1,left,Green_Plus_Chess_3.jpg,Purple_Plus_Dots_1.jpg,Red_Triangle_Grid_3.jpg,left,869.6500000078231,true,low,false
vSDXTnz7,3atyli1pswfm29bow6spg463876ojo,3tvss0c0e5dq85epqo25oo2qmblwt6,vSDXTnz7,2020-0188,2020-11-17,09:04:42,09:22:57,NA,incomplete,107,shape,0,1,left,Purple_Circle_Dots_4.jpg,Green_Circle_Chess_2.jpg,Blue_Plus_Grid_4.jpg,left,1161.255000042729,true,low,false
vSDXTnz7,3atyli1pswfm29bow6spg463876ojo,3tvss0c0e5dq85epqo25oo2qmblwt6,vSDXTnz7,2020-0188,2020-11-17,09:04:42,09:22:57,NA,incomplete,108,shape,0,1,right,Purple_Triangle_Stripes_1.jpg,Blue_Circle_Dots_1.jpg,Red_Triangle_Chess_3.jpg,right,934.3750000116415,true,low,false
vSDXTnz7,3atyli1pswfm29bow6spg463876ojo,3tvss0c0e5dq85epqo25oo2qmblwt6,vSDXTnz7,2020-0188,2020-11-17,09:04:42,09:22:57,NA,incomplete,109,shape,0,1,right,Red_Circle_Dots_2.jpg,Purple_Plus_Stripes_2.jpg,Green_Circle_Grid_3.jpg,right,832.2500000358559,true,low,false
vSDXTnz7,3atyli1pswfm29bow6spg463876ojo,3tvss0c0e5dq85epqo25oo2qmblwt6,vSDXTnz7,2020-0188,2020-11-17,09:04:42,09:22:57,NA,incomplete,110,number,1,1,right,Red_Triangle_Grid_2.jpg,Purple_Triangle_Chess_3.jpg,Green_Plus_Dots_2.jpg,left,735.2400000090711,false,low,false
vSDXTnz7,3atyli1pswfm29bow6spg463876ojo,3tvss0c0e5dq85epqo25oo2qmblwt6,vSDXTnz7,2020-0188,2020-11-17,09:04:42,09:22:57,NA,incomplete,111,number,1,1,left,Red_Triangle_Dots_1.jpg,Purple_Plus_Stripes_1.jpg,Green_Triangle_Chess_3.jpg,right,673.5200000111945,false,low,false
vSDXTnz7,3atyli1pswfm29bow6spg463876ojo,3tvss0c0e5dq85epqo25oo2qmblwt6,vSDXTnz7,2020-0188,2020-11-17,09:04:42,09:22:57,NA,incomplete,112,number,1,1,right,Green_Circle_Chess_4.jpg,Purple_Circle_Stripes_3.jpg,Red_Triangle_Dots_4.jpg,left,824.8949999688193,false,low,false
vSDXTnz7,3atyli1pswfm29bow6spg463876ojo,3tvss0c0e5dq85epqo25oo2qmblwt6,vSDXTnz7,2020-0188,2020-11-17,09:04:42,09:22:57,NA,incomplete,113,number,1,1,right,Blue_Star_Chess_1.jpg,Green_Star_Grid_3.jpg,Purple_Circle_Dots_1.jpg,right,719.939999980852,true,low,false
vSDXTnz7,3atyli1pswfm29bow6spg463876ojo,3tvss0c0e5dq85epqo25oo2qmblwt6,vSDXTnz7,2020-0188,2020-11-17,09:04:42,09:22:57,NA,incomplete,114,number,1,1,right,Purple_Star_Dots_4.jpg,Green_Star_Stripes_3.jpg,Blue_Triangle_Grid_4.jpg,right,691.4749999996275,true,low,false
vSDXTnz7,3atyli1pswfm29bow6spg463876ojo,3tvss0c0e5dq85epqo25oo2qmblwt6,vSDXTnz7,2020-0188,2020-11-17,09:04:42,09:22:57,NA,incomplete,115,number,1,1,right,Red_Star_Dots_4.jpg,Blue_Star_Chess_1.jpg,Green_Triangle_Stripes_4.jpg,right,731.8599999998696,true,low,false
vSDXTnz7,3atyli1pswfm29bow6spg463876ojo,3tvss0c0e5dq85epqo25oo2qmblwt6,vSDXTnz7,2020-0188,2020-11-17,09:04:42,09:22:57,NA,incomplete,116,number,1,1,left,Blue_Plus_Stripes_4.jpg,Green_Star_Chess_4.jpg,Purple_Plus_Dots_2.jpg,left,603.995000012219,true,low,false
vSDXTnz7,3atyli1pswfm29bow6spg463876ojo,3tvss0c0e5dq85epqo25oo2qmblwt6,vSDXTnz7,2020-0188,2020-11-17,09:04:42,09:22:57,NA,incomplete,117,number,1,1,right,Purple_Triangle_Grid_4.jpg,Green_Triangle_Dots_3.jpg,Blue_Star_Stripes_4.jpg,right,694.5349999587052,true,low,false
vSDXTnz7,3atyli1pswfm29bow6spg463876ojo,3tvss0c0e5dq85epqo25oo2qmblwt6,vSDXTnz7,2020-0188,2020-11-17,09:04:42,09:22:57,NA,incomplete,118,number,1,1,right,Red_Circle_Stripes_1.jpg,Purple_Circle_Dots_2.jpg,Green_Star_Chess_1.jpg,right,658.3949999767356,true,low,false
vSDXTnz7,3atyli1pswfm29bow6spg463876ojo,3tvss0c0e5dq85epqo25oo2qmblwt6,vSDXTnz7,2020-0188,2020-11-17,09:04:42,09:22:57,NA,incomplete,119,number,1,1,right,Red_Star_Stripes_1.jpg,Green_Star_Grid_3.jpg,Purple_Circle_Chess_1.jpg,right,696.8749999650754,true,low,false
vSDXTnz7,3atyli1pswfm29bow6spg463876ojo,3tvss0c0e5dq85epqo25oo2qmblwt6,vSDXTnz7,2020-0188,2020-11-17,09:04:42,09:22:57,NA,incomplete,120,gender,2,1,right,A_F_01.jpg,A_M_04.jpg,C_F_03.jpg,NA,NA,NA,low,false
vSDXTnz7,3atyli1pswfm29bow6spg463876ojo,3tvss0c0e5dq85epqo25oo2qmblwt6,vSDXTnz7,2020-0188,2020-11-17,09:04:42,09:22:57,NA,incomplete,121,gender,2,1,left,C_M_11.jpg,A_M_12.jpg,C_F_08.jpg,left,1320.0200000428595,true,low,false
vSDXTnz7,3atyli1pswfm29bow6spg463876ojo,3tvss0c0e5dq85epqo25oo2qmblwt6,vSDXTnz7,2020-0188,2020-11-17,09:04:42,09:22:57,NA,incomplete,122,gender,2,1,left,C_F_11.jpg,A_F_16.jpg,C_M_15.jpg,left,1254.9599999911152,true,low,false
vSDXTnz7,3atyli1pswfm29bow6spg463876ojo,3tvss0c0e5dq85epqo25oo2qmblwt6,vSDXTnz7,2020-0188,2020-11-17,09:04:42,09:22:57,NA,incomplete,123,gender,2,1,right,A_M_16.jpg,A_F_03.jpg,C_M_06.jpg,right,933.6400000029244,true,low,false
vSDXTnz7,3atyli1pswfm29bow6spg463876ojo,3tvss0c0e5dq85epqo25oo2qmblwt6,vSDXTnz7,2020-0188,2020-11-17,09:04:42,09:22:57,NA,incomplete,124,gender,2,0,right,A_M_06.jpg,A_F_11.jpg,C_M_10.jpg,right,1197.1699999994598,true,low,false
vSDXTnz7,3atyli1pswfm29bow6spg463876ojo,3tvss0c0e5dq85epqo25oo2qmblwt6,vSDXTnz7,2020-0188,2020-11-17,09:04:42,09:22:57,NA,incomplete,125,gender,2,1,right,A_F_15.jpg,A_M_03.jpg,C_F_14.jpg,right,933.164999994915,true,low,false
vSDXTnz7,3atyli1pswfm29bow6spg463876ojo,3tvss0c0e5dq85epqo25oo2qmblwt6,vSDXTnz7,2020-0188,2020-11-17,09:04:42,09:22:57,NA,incomplete,126,gender,2,0,left,A_F_12.jpg,C_F_07.jpg,A_M_05.jpg,left,867.9750000010245,true,low,false
vSDXTnz7,3atyli1pswfm29bow6spg463876ojo,3tvss0c0e5dq85epqo25oo2qmblwt6,vSDXTnz7,2020-0188,2020-11-17,09:04:42,09:22:57,NA,incomplete,127,gender,2,1,right,A_F_14.jpg,A_M_13.jpg,C_F_01.jpg,right,1519.1450000274926,true,low,false
vSDXTnz7,3atyli1pswfm29bow6spg463876ojo,3tvss0c0e5dq85epqo25oo2qmblwt6,vSDXTnz7,2020-0188,2020-11-17,09:04:42,09:22:57,NA,incomplete,128,gender,2,1,right,A_M_14.jpg,A_F_05.jpg,C_M_11.jpg,right,956.8749999743886,true,low,false
vSDXTnz7,3atyli1pswfm29bow6spg463876ojo,3tvss0c0e5dq85epqo25oo2qmblwt6,vSDXTnz7,2020-0188,2020-11-17,09:04:42,09:22:57,NA,incomplete,129,gender,2,1,right,A_F_03.jpg,A_M_08.jpg,C_F_10.jpg,right,953.5100000211969,true,low,false
vSDXTnz7,3atyli1pswfm29bow6spg463876ojo,3tvss0c0e5dq85epqo25oo2qmblwt6,vSDXTnz7,2020-0188,2020-11-17,09:04:42,09:22:57,NA,incomplete,130,gender,2,1,right,C_M_09.jpg,C_F_11.jpg,A_M_16.jpg,right,960.9699999564327,true,low,false
vSDXTnz7,3atyli1pswfm29bow6spg463876ojo,3tvss0c0e5dq85epqo25oo2qmblwt6,vSDXTnz7,2020-0188,2020-11-17,09:04:42,09:22:57,NA,incomplete,131,gender,2,1,right,C_M_10.jpg,C_F_12.jpg,A_M_09.jpg,right,875.655000039842,true,low,false
vSDXTnz7,3atyli1pswfm29bow6spg463876ojo,3tvss0c0e5dq85epqo25oo2qmblwt6,vSDXTnz7,2020-0188,2020-11-17,09:04:42,09:22:57,NA,incomplete,132,gender,2,0,right,A_M_11.jpg,A_F_02.jpg,C_M_10.jpg,right,810.715000028722,true,low,false
vSDXTnz7,3atyli1pswfm29bow6spg463876ojo,3tvss0c0e5dq85epqo25oo2qmblwt6,vSDXTnz7,2020-0188,2020-11-17,09:04:42,09:22:57,NA,incomplete,133,gender,2,1,left,C_M_12.jpg,A_M_11.jpg,C_F_16.jpg,left,959.8199999891222,true,low,false
vSDXTnz7,3atyli1pswfm29bow6spg463876ojo,3tvss0c0e5dq85epqo25oo2qmblwt6,vSDXTnz7,2020-0188,2020-11-17,09:04:42,09:22:57,NA,incomplete,134,gender,2,1,left,A_F_14.jpg,C_F_02.jpg,A_M_10.jpg,left,967.2500000451691,true,low,false
vSDXTnz7,3atyli1pswfm29bow6spg463876ojo,3tvss0c0e5dq85epqo25oo2qmblwt6,vSDXTnz7,2020-0188,2020-11-17,09:04:42,09:22:57,NA,incomplete,135,gender,2,0,right,C_F_02.jpg,C_M_13.jpg,A_F_15.jpg,right,799.7850000392646,true,low,false
vSDXTnz7,3atyli1pswfm29bow6spg463876ojo,3tvss0c0e5dq85epqo25oo2qmblwt6,vSDXTnz7,2020-0188,2020-11-17,09:04:42,09:22:57,NA,incomplete,136,gender,2,1,left,A_F_16.jpg,C_F_03.jpg,A_M_01.jpg,left,825.3749999566935,true,low,false
vSDXTnz7,3atyli1pswfm29bow6spg463876ojo,3tvss0c0e5dq85epqo25oo2qmblwt6,vSDXTnz7,2020-0188,2020-11-17,09:04:42,09:22:57,NA,incomplete,137,gender,2,1,right,C_M_15.jpg,C_F_11.jpg,A_M_05.jpg,right,961.3600000157021,true,low,false
vSDXTnz7,3atyli1pswfm29bow6spg463876ojo,3tvss0c0e5dq85epqo25oo2qmblwt6,vSDXTnz7,2020-0188,2020-11-17,09:04:42,09:22:57,NA,incomplete,138,gender,2,1,right,A_F_13.jpg,A_M_16.jpg,C_F_08.jpg,right,802.2449999698438,true,low,false
vSDXTnz7,3atyli1pswfm29bow6spg463876ojo,3tvss0c0e5dq85epqo25oo2qmblwt6,vSDXTnz7,2020-0188,2020-11-17,09:04:42,09:22:57,NA,incomplete,139,gender,2,1,right,C_M_12.jpg,C_F_06.jpg,A_M_09.jpg,right,857.0149999577552,true,low,false
vSDXTnz7,3atyli1pswfm29bow6spg463876ojo,3tvss0c0e5dq85epqo25oo2qmblwt6,vSDXTnz7,2020-0188,2020-11-17,09:04:42,09:22:57,NA,incomplete,140,race,3,1,left,A_F_14.jpg,A_M_05.jpg,C_F_03.jpg,left,1089.5000000018626,true,low,false
vSDXTnz7,3atyli1pswfm29bow6spg463876ojo,3tvss0c0e5dq85epqo25oo2qmblwt6,vSDXTnz7,2020-0188,2020-11-17,09:04:42,09:22:57,NA,incomplete,141,race,3,1,left,C_M_04.jpg,C_F_01.jpg,A_M_16.jpg,left,1372.4849999998696,true,low,false
vSDXTnz7,3atyli1pswfm29bow6spg463876ojo,3tvss0c0e5dq85epqo25oo2qmblwt6,vSDXTnz7,2020-0188,2020-11-17,09:04:42,09:22:57,NA,incomplete,142,race,3,0,left,C_F_04.jpg,C_M_16.jpg,A_F_09.jpg,left,1361.8750000023283,true,low,false
vSDXTnz7,3atyli1pswfm29bow6spg463876ojo,3tvss0c0e5dq85epqo25oo2qmblwt6,vSDXTnz7,2020-0188,2020-11-17,09:04:42,09:22:57,NA,incomplete,143,race,3,1,left,C_F_01.jpg,C_M_08.jpg,A_F_02.jpg,left,1151.28500002902,true,low,false
vSDXTnz7,3atyli1pswfm29bow6spg463876ojo,3tvss0c0e5dq85epqo25oo2qmblwt6,vSDXTnz7,2020-0188,2020-11-17,09:04:42,09:22:57,NA,incomplete,144,race,3,1,left,C_F_06.jpg,C_M_14.jpg,A_F_10.jpg,left,1016.6050000116229,true,low,false
vSDXTnz7,3atyli1pswfm29bow6spg463876ojo,3tvss0c0e5dq85epqo25oo2qmblwt6,vSDXTnz7,2020-0188,2020-11-17,09:04:42,09:22:57,NA,incomplete,145,race,3,1,left,A_M_03.jpg,A_F_15.jpg,C_M_05.jpg,left,1083.760000008624,true,low,false
vSDXTnz7,3atyli1pswfm29bow6spg463876ojo,3tvss0c0e5dq85epqo25oo2qmblwt6,vSDXTnz7,2020-0188,2020-11-17,09:04:42,09:22:57,NA,incomplete,146,race,3,1,right,C_F_11.jpg,A_F_03.jpg,C_M_01.jpg,right,1435.4000000166707,true,low,false
vSDXTnz7,3atyli1pswfm29bow6spg463876ojo,3tvss0c0e5dq85epqo25oo2qmblwt6,vSDXTnz7,2020-0188,2020-11-17,09:04:42,09:22:57,NA,incomplete,147,race,3,0,left,A_M_14.jpg,A_F_08.jpg,C_M_01.jpg,left,1143.210000009276,true,low,false
vSDXTnz7,3atyli1pswfm29bow6spg463876ojo,3tvss0c0e5dq85epqo25oo2qmblwt6,vSDXTnz7,2020-0188,2020-11-17,09:04:42,09:22:57,NA,incomplete,148,race,3,1,left,A_F_11.jpg,A_M_02.jpg,C_F_07.jpg,left,812.6150000025518,true,low,false
vSDXTnz7,3atyli1pswfm29bow6spg463876ojo,3tvss0c0e5dq85epqo25oo2qmblwt6,vSDXTnz7,2020-0188,2020-11-17,09:04:42,09:22:57,NA,incomplete,149,race,3,1,left,C_F_07.jpg,C_M_14.jpg,A_F_13.jpg,left,1371.7300000134856,true,low,false
vSDXTnz7,3atyli1pswfm29bow6spg463876ojo,3tvss0c0e5dq85epqo25oo2qmblwt6,vSDXTnz7,2020-0188,2020-11-17,09:04:42,09:22:57,NA,incomplete,150,race,3,1,left,A_F_07.jpg,A_M_15.jpg,C_F_11.jpg,left,1175.4300000029616,true,low,false
vSDXTnz7,3atyli1pswfm29bow6spg463876ojo,3tvss0c0e5dq85epqo25oo2qmblwt6,vSDXTnz7,2020-0188,2020-11-17,09:04:42,09:22:57,NA,incomplete,151,race,3,0,left,C_M_09.jpg,C_F_07.jpg,A_M_01.jpg,left,1404.9699999741279,true,low,false
vSDXTnz7,3atyli1pswfm29bow6spg463876ojo,3tvss0c0e5dq85epqo25oo2qmblwt6,vSDXTnz7,2020-0188,2020-11-17,09:04:42,09:22:57,NA,incomplete,152,race,3,1,right,C_F_09.jpg,A_F_05.jpg,C_M_15.jpg,right,991.0750000271946,true,low,false
vSDXTnz7,3atyli1pswfm29bow6spg463876ojo,3tvss0c0e5dq85epqo25oo2qmblwt6,vSDXTnz7,2020-0188,2020-11-17,09:04:42,09:22:57,NA,incomplete,153,race,3,1,left,C_F_02.jpg,C_M_03.jpg,A_F_06.jpg,left,940.3000000165775,true,low,false
vSDXTnz7,3atyli1pswfm29bow6spg463876ojo,3tvss0c0e5dq85epqo25oo2qmblwt6,vSDXTnz7,2020-0188,2020-11-17,09:04:42,09:22:57,NA,incomplete,154,race,3,1,left,C_F_08.jpg,C_M_14.jpg,A_F_05.jpg,left,927.5149999884889,true,low,false
vSDXTnz7,3atyli1pswfm29bow6spg463876ojo,3tvss0c0e5dq85epqo25oo2qmblwt6,vSDXTnz7,2020-0188,2020-11-17,09:04:42,09:22:57,NA,incomplete,155,race,3,1,left,A_F_04.jpg,A_M_11.jpg,C_F_16.jpg,left,1092.095000029076,true,low,false
vSDXTnz7,3atyli1pswfm29bow6spg463876ojo,3tvss0c0e5dq85epqo25oo2qmblwt6,vSDXTnz7,2020-0188,2020-11-17,09:04:42,09:22:57,NA,incomplete,156,race,3,1,left,C_F_10.jpg,C_M_14.jpg,A_F_11.jpg,right,1064.8000000510365,false,low,false
vSDXTnz7,3atyli1pswfm29bow6spg463876ojo,3tvss0c0e5dq85epqo25oo2qmblwt6,vSDXTnz7,2020-0188,2020-11-17,09:04:42,09:22:57,NA,incomplete,157,race,3,1,left,A_M_15.jpg,A_F_06.jpg,C_M_02.jpg,left,1136.9500000146218,true,low,false
vSDXTnz7,3atyli1pswfm29bow6spg463876ojo,3tvss0c0e5dq85epqo25oo2qmblwt6,vSDXTnz7,2020-0188,2020-11-17,09:04:42,09:22:57,NA,incomplete,158,race,3,1,left,A_M_05.jpg,A_F_16.jpg,C_M_12.jpg,left,1063.9650000375696,true,low,false
vSDXTnz7,3atyli1pswfm29bow6spg463876ojo,3tvss0c0e5dq85epqo25oo2qmblwt6,vSDXTnz7,2020-0188,2020-11-17,09:04:42,09:22:57,NA,incomplete,159,race,3,1,left,C_F_15.jpg,C_M_01.jpg,A_F_16.jpg,left,920.029999979306,true,low,false
vSDXTnz7,3atyli1pswfm29bow6spg463876ojo,3tvss0c0e5dq85epqo25oo2qmblwt6,vSDXTnz7,2020-0188,2020-11-17,09:04:42,09:22:57,NA,incomplete,160,gender,2,1,right,A_F_11.jpg,A_M_07.jpg,C_F_12.jpg,left,791.9750000000931,false,low,false
vSDXTnz7,3atyli1pswfm29bow6spg463876ojo,3tvss0c0e5dq85epqo25oo2qmblwt6,vSDXTnz7,2020-0188,2020-11-17,09:04:42,09:22:57,NA,incomplete,161,gender,2,1,right,A_F_16.jpg,A_M_02.jpg,C_F_09.jpg,left,895.5249999999069,false,low,false
vSDXTnz7,3atyli1pswfm29bow6spg463876ojo,3tvss0c0e5dq85epqo25oo2qmblwt6,vSDXTnz7,2020-0188,2020-11-17,09:04:42,09:22:57,NA,incomplete,162,gender,2,1,left,C_F_07.jpg,A_F_01.jpg,C_M_15.jpg,left,1191.1400000099093,true,low,false
vSDXTnz7,3atyli1pswfm29bow6spg463876ojo,3tvss0c0e5dq85epqo25oo2qmblwt6,vSDXTnz7,2020-0188,2020-11-17,09:04:42,09:22:57,NA,incomplete,163,gender,2,0,right,A_M_14.jpg,A_F_15.jpg,C_M_16.jpg,right,995.5499999923632,true,low,false
vSDXTnz7,3atyli1pswfm29bow6spg463876ojo,3tvss0c0e5dq85epqo25oo2qmblwt6,vSDXTnz7,2020-0188,2020-11-17,09:04:42,09:22:57,NA,incomplete,164,gender,2,1,right,C_M_08.jpg,C_F_01.jpg,A_M_14.jpg,right,939.4650000031106,true,low,false
vSDXTnz7,3atyli1pswfm29bow6spg463876ojo,3tvss0c0e5dq85epqo25oo2qmblwt6,vSDXTnz7,2020-0188,2020-11-17,09:04:42,09:22:57,NA,incomplete,165,gender,2,0,left,A_M_13.jpg,C_M_07.jpg,A_F_08.jpg,left,936.7799999890849,true,low,false
vSDXTnz7,3atyli1pswfm29bow6spg463876ojo,3tvss0c0e5dq85epqo25oo2qmblwt6,vSDXTnz7,2020-0188,2020-11-17,09:04:42,09:22:57,NA,incomplete,166,gender,2,1,right,A_M_03.jpg,A_F_04.jpg,C_M_01.jpg,right,719.4249999593012,true,low,false
vSDXTnz7,3atyli1pswfm29bow6spg463876ojo,3tvss0c0e5dq85epqo25oo2qmblwt6,vSDXTnz7,2020-0188,2020-11-17,09:04:42,09:22:57,NA,incomplete,167,gender,2,1,left,C_M_01.jpg,A_M_07.jpg,C_F_08.jpg,left,893.5500000370666,true,low,false
vSDXTnz7,3atyli1pswfm29bow6spg463876ojo,3tvss0c0e5dq85epqo25oo2qmblwt6,vSDXTnz7,2020-0188,2020-11-17,09:04:42,09:22:57,NA,incomplete,168,gender,2,1,right,C_F_04.jpg,C_M_01.jpg,A_F_15.jpg,right,914.2350000329316,true,low,false
vSDXTnz7,3atyli1pswfm29bow6spg463876ojo,3tvss0c0e5dq85epqo25oo2qmblwt6,vSDXTnz7,2020-0188,2020-11-17,09:04:42,09:22:57,NA,incomplete,169,gender,2,0,right,A_F_05.jpg,A_M_08.jpg,C_F_13.jpg,right,1249.3600000161678,true,low,false
vSDXTnz7,3atyli1pswfm29bow6spg463876ojo,3tvss0c0e5dq85epqo25oo2qmblwt6,vSDXTnz7,2020-0188,2020-11-17,09:04:42,09:22:57,NA,incomplete,170,gender,2,1,left,C_M_02.jpg,A_M_06.jpg,C_F_11.jpg,right,1312.4250000109896,false,low,false
vSDXTnz7,3atyli1pswfm29bow6spg463876ojo,3tvss0c0e5dq85epqo25oo2qmblwt6,vSDXTnz7,2020-0188,2020-11-17,09:04:42,09:22:57,NA,incomplete,171,gender,2,0,left,C_M_10.jpg,A_M_14.jpg,C_F_03.jpg,right,1574.0149999619462,false,low,false
vSDXTnz7,3atyli1pswfm29bow6spg463876ojo,3tvss0c0e5dq85epqo25oo2qmblwt6,vSDXTnz7,2020-0188,2020-11-17,09:04:42,09:22:57,NA,incomplete,172,gender,2,1,left,A_M_08.jpg,C_M_12.jpg,A_F_03.jpg,right,920.25000002468,false,low,false
vSDXTnz7,3atyli1pswfm29bow6spg463876ojo,3tvss0c0e5dq85epqo25oo2qmblwt6,vSDXTnz7,2020-0188,2020-11-17,09:04:42,09:22:57,NA,incomplete,173,gender,2,1,right,A_M_06.jpg,A_F_03.jpg,C_M_10.jpg,left,897.8600000264123,false,low,false
vSDXTnz7,3atyli1pswfm29bow6spg463876ojo,3tvss0c0e5dq85epqo25oo2qmblwt6,vSDXTnz7,2020-0188,2020-11-17,09:04:42,09:22:57,NA,incomplete,174,gender,2,1,left,C_F_04.jpg,A_F_12.jpg,C_M_06.jpg,right,1087.7800000016578,false,low,false
vSDXTnz7,3atyli1pswfm29bow6spg463876ojo,3tvss0c0e5dq85epqo25oo2qmblwt6,vSDXTnz7,2020-0188,2020-11-17,09:04:42,09:22:57,NA,incomplete,175,gender,2,1,right,A_F_16.jpg,A_M_06.jpg,C_F_14.jpg,left,929.595000052359,false,low,false
vSDXTnz7,3atyli1pswfm29bow6spg463876ojo,3tvss0c0e5dq85epqo25oo2qmblwt6,vSDXTnz7,2020-0188,2020-11-17,09:04:42,09:22:57,NA,incomplete,176,gender,2,0,left,A_M_07.jpg,C_M_12.jpg,A_F_09.jpg,left,812.4250000109896,true,low,false
vSDXTnz7,3atyli1pswfm29bow6spg463876ojo,3tvss0c0e5dq85epqo25oo2qmblwt6,vSDXTnz7,2020-0188,2020-11-17,09:04:42,09:22:57,NA,incomplete,177,gender,2,1,right,C_M_04.jpg,C_F_02.jpg,A_M_05.jpg,right,779.1999999899417,true,low,false
vSDXTnz7,3atyli1pswfm29bow6spg463876ojo,3tvss0c0e5dq85epqo25oo2qmblwt6,vSDXTnz7,2020-0188,2020-11-17,09:04:42,09:22:57,NA,incomplete,178,gender,2,1,right,C_M_12.jpg,C_F_16.jpg,A_M_03.jpg,right,769.5799999637529,true,low,false
vSDXTnz7,3atyli1pswfm29bow6spg463876ojo,3tvss0c0e5dq85epqo25oo2qmblwt6,vSDXTnz7,2020-0188,2020-11-17,09:04:42,09:22:57,NA,incomplete,179,gender,2,0,left,A_M_09.jpg,C_M_01.jpg,A_F_13.jpg,left,849.8000000254251,true,low,false
vSDXTnz7,3atyli1pswfm29bow6spg463876ojo,3tvss0c0e5dq85epqo25oo2qmblwt6,vSDXTnz7,2020-0188,2020-11-17,09:04:42,09:22:57,NA,incomplete,180,race,3,1,right,C_F_04.jpg,A_F_15.jpg,C_M_09.jpg,left,703.5699999541976,false,low,false
vSDXTnz7,3atyli1pswfm29bow6spg463876ojo,3tvss0c0e5dq85epqo25oo2qmblwt6,vSDXTnz7,2020-0188,2020-11-17,09:04:42,09:22:57,NA,incomplete,181,race,3,1,right,C_F_02.jpg,A_F_09.jpg,C_M_12.jpg,right,1064.8350000265054,true,low,false
vSDXTnz7,3atyli1pswfm29bow6spg463876ojo,3tvss0c0e5dq85epqo25oo2qmblwt6,vSDXTnz7,2020-0188,2020-11-17,09:04:42,09:22:57,NA,incomplete,182,race,3,1,right,A_M_06.jpg,C_M_01.jpg,A_F_11.jpg,right,824.3699999875389,true,low,false
vSDXTnz7,3atyli1pswfm29bow6spg463876ojo,3tvss0c0e5dq85epqo25oo2qmblwt6,vSDXTnz7,2020-0188,2020-11-17,09:04:42,09:22:57,NA,incomplete,183,race,3,0,left,C_F_05.jpg,C_M_03.jpg,A_F_14.jpg,right,1660.9499999904074,false,low,false
vSDXTnz7,3atyli1pswfm29bow6spg463876ojo,3tvss0c0e5dq85epqo25oo2qmblwt6,vSDXTnz7,2020-0188,2020-11-17,09:04:42,09:22:57,NA,incomplete,184,race,3,1,right,C_M_04.jpg,A_M_05.jpg,C_F_06.jpg,left,1300.199999997858,false,low,false
vSDXTnz7,3atyli1pswfm29bow6spg463876ojo,3tvss0c0e5dq85epqo25oo2qmblwt6,vSDXTnz7,2020-0188,2020-11-17,09:04:42,09:22:57,NA,incomplete,185,race,3,1,right,A_F_01.jpg,C_F_03.jpg,A_M_05.jpg,right,1466.405000013765,true,low,false
vSDXTnz7,3atyli1pswfm29bow6spg463876ojo,3tvss0c0e5dq85epqo25oo2qmblwt6,vSDXTnz7,2020-0188,2020-11-17,09:04:42,09:22:57,NA,incomplete,186,race,3,1,left,C_M_14.jpg,C_F_10.jpg,A_M_06.jpg,left,1747.960000007879,true,low,false
vSDXTnz7,3atyli1pswfm29bow6spg463876ojo,3tvss0c0e5dq85epqo25oo2qmblwt6,vSDXTnz7,2020-0188,2020-11-17,09:04:42,09:22:57,NA,incomplete,187,race,3,1,right,A_F_08.jpg,C_F_16.jpg,A_M_05.jpg,right,989.3300000112504,true,low,false
vSDXTnz7,3atyli1pswfm29bow6spg463876ojo,3tvss0c0e5dq85epqo25oo2qmblwt6,vSDXTnz7,2020-0188,2020-11-17,09:04:42,09:22:57,NA,incomplete,188,race,3,0,left,A_F_14.jpg,A_M_06.jpg,C_F_10.jpg,left,1224.0899999742396,true,low,false
vSDXTnz7,3atyli1pswfm29bow6spg463876ojo,3tvss0c0e5dq85epqo25oo2qmblwt6,vSDXTnz7,2020-0188,2020-11-17,09:04:42,09:22:57,NA,incomplete,189,race,3,1,left,A_F_14.jpg,A_M_15.jpg,C_F_13.jpg,left,807.6599999913014,true,low,false
vSDXTnz7,3atyli1pswfm29bow6spg463876ojo,3tvss0c0e5dq85epqo25oo2qmblwt6,vSDXTnz7,2020-0188,2020-11-17,09:04:42,09:22:57,NA,incomplete,190,race,3,0,left,C_F_04.jpg,C_M_06.jpg,A_F_15.jpg,left,1296.3450000388548,true,low,false
vSDXTnz7,3atyli1pswfm29bow6spg463876ojo,3tvss0c0e5dq85epqo25oo2qmblwt6,vSDXTnz7,2020-0188,2020-11-17,09:04:42,09:22:57,NA,incomplete,191,race,3,1,right,A_M_01.jpg,C_M_13.jpg,A_F_07.jpg,right,957.0400000084192,true,low,false
vSDXTnz7,3atyli1pswfm29bow6spg463876ojo,3tvss0c0e5dq85epqo25oo2qmblwt6,vSDXTnz7,2020-0188,2020-11-17,09:04:42,09:22:57,NA,incomplete,192,race,3,1,right,A_M_08.jpg,C_M_15.jpg,A_F_13.jpg,right,966.7999999946915,true,low,false
vSDXTnz7,3atyli1pswfm29bow6spg463876ojo,3tvss0c0e5dq85epqo25oo2qmblwt6,vSDXTnz7,2020-0188,2020-11-17,09:04:42,09:22:57,NA,incomplete,193,race,3,0,left,A_F_06.jpg,A_M_04.jpg,C_F_10.jpg,left,834.4800000195391,true,low,false
vSDXTnz7,3atyli1pswfm29bow6spg463876ojo,3tvss0c0e5dq85epqo25oo2qmblwt6,vSDXTnz7,2020-0188,2020-11-17,09:04:42,09:22:57,NA,incomplete,194,race,3,1,right,C_F_01.jpg,A_F_02.jpg,C_M_14.jpg,right,1229.4700000202283,true,low,false
vSDXTnz7,3atyli1pswfm29bow6spg463876ojo,3tvss0c0e5dq85epqo25oo2qmblwt6,vSDXTnz7,2020-0188,2020-11-17,09:04:42,09:22:57,NA,incomplete,195,race,3,1,right,A_F_08.jpg,C_F_09.jpg,A_M_12.jpg,right,985.3299999958836,true,low,false
vSDXTnz7,3atyli1pswfm29bow6spg463876ojo,3tvss0c0e5dq85epqo25oo2qmblwt6,vSDXTnz7,2020-0188,2020-11-17,09:04:42,09:22:57,NA,incomplete,196,race,3,1,right,C_M_04.jpg,A_M_10.jpg,C_F_08.jpg,right,1086.8350000237115,true,low,false
vSDXTnz7,3atyli1pswfm29bow6spg463876ojo,3tvss0c0e5dq85epqo25oo2qmblwt6,vSDXTnz7,2020-0188,2020-11-17,09:04:42,09:22:57,NA,incomplete,197,race,3,1,left,A_F_13.jpg,A_M_09.jpg,C_F_14.jpg,left,790.1049999636598,true,low,false
vSDXTnz7,3atyli1pswfm29bow6spg463876ojo,3tvss0c0e5dq85epqo25oo2qmblwt6,vSDXTnz7,2020-0188,2020-11-17,09:04:42,09:22:57,NA,incomplete,198,race,3,1,right,C_M_16.jpg,A_M_14.jpg,C_F_10.jpg,right,1472.5900000194088,true,low,false
vSDXTnz7,3atyli1pswfm29bow6spg463876ojo,3tvss0c0e5dq85epqo25oo2qmblwt6,vSDXTnz7,2020-0188,2020-11-17,09:04:42,09:22:57,NA,incomplete,199,race,3,1,left,C_F_11.jpg,C_M_10.jpg,A_F_07.jpg,left,1163.4549999726005,true,low,false
vSDXTnz7,3atyli1pswfm29bow6spg463876ojo,3tvss0c0e5dq85epqo25oo2qmblwt6,vSDXTnz7,2020-0188,2020-11-17,09:04:42,09:22:57,NA,incomplete,200,gender,2,1,right,A_F_06.jpg,A_M_11.jpg,C_F_07.jpg,left,1089.254999998957,false,low,false
vSDXTnz7,3atyli1pswfm29bow6spg463876ojo,3tvss0c0e5dq85epqo25oo2qmblwt6,vSDXTnz7,2020-0188,2020-11-17,09:04:42,09:22:57,NA,incomplete,201,gender,2,1,left,C_F_16.jpg,A_F_13.jpg,C_M_06.jpg,right,938.2900000200607,false,low,false
vSDXTnz7,3atyli1pswfm29bow6spg463876ojo,3tvss0c0e5dq85epqo25oo2qmblwt6,vSDXTnz7,2020-0188,2020-11-17,09:04:42,09:22:57,NA,incomplete,202,gender,2,1,right,C_F_08.jpg,C_M_15.jpg,A_F_14.jpg,right,864.0899999882095,true,low,false
vSDXTnz7,3atyli1pswfm29bow6spg463876ojo,3tvss0c0e5dq85epqo25oo2qmblwt6,vSDXTnz7,2020-0188,2020-11-17,09:04:42,09:22:57,NA,incomplete,203,gender,2,0,left,C_F_02.jpg,A_F_16.jpg,C_M_04.jpg,left,757.0599999744445,true,low,false
vSDXTnz7,3atyli1pswfm29bow6spg463876ojo,3tvss0c0e5dq85epqo25oo2qmblwt6,vSDXTnz7,2020-0188,2020-11-17,09:04:42,09:22:57,NA,incomplete,204,gender,2,1,left,C_F_06.jpg,A_F_10.jpg,C_M_05.jpg,left,704.8349999822676,true,low,false
vSDXTnz7,3atyli1pswfm29bow6spg463876ojo,3tvss0c0e5dq85epqo25oo2qmblwt6,vSDXTnz7,2020-0188,2020-11-17,09:04:42,09:22:57,NA,incomplete,205,gender,2,1,right,A_F_10.jpg,A_M_11.jpg,C_F_07.jpg,right,675.3499999758787,true,low,false
vSDXTnz7,3atyli1pswfm29bow6spg463876ojo,3tvss0c0e5dq85epqo25oo2qmblwt6,vSDXTnz7,2020-0188,2020-11-17,09:04:42,09:22:57,NA,incomplete,206,gender,2,1,right,C_F_11.jpg,C_M_09.jpg,A_F_03.jpg,right,633.9049999951385,true,low,false
vSDXTnz7,3atyli1pswfm29bow6spg463876ojo,3tvss0c0e5dq85epqo25oo2qmblwt6,vSDXTnz7,2020-0188,2020-11-17,09:04:42,09:22:57,NA,incomplete,207,gender,2,0,left,C_M_07.jpg,A_M_04.jpg,C_F_09.jpg,left,847.8100000065751,true,low,false
vSDXTnz7,3atyli1pswfm29bow6spg463876ojo,3tvss0c0e5dq85epqo25oo2qmblwt6,vSDXTnz7,2020-0188,2020-11-17,09:04:42,09:22:57,NA,incomplete,208,gender,2,1,right,A_F_12.jpg,A_M_01.jpg,C_F_06.jpg,right,744.1199999884702,true,low,false
vSDXTnz7,3atyli1pswfm29bow6spg463876ojo,3tvss0c0e5dq85epqo25oo2qmblwt6,vSDXTnz7,2020-0188,2020-11-17,09:04:42,09:22:57,NA,incomplete,209,gender,2,1,right,C_F_03.jpg,C_M_15.jpg,A_F_08.jpg,right,1115.0699999998324,true,low,false
vSDXTnz7,3atyli1pswfm29bow6spg463876ojo,3tvss0c0e5dq85epqo25oo2qmblwt6,vSDXTnz7,2020-0188,2020-11-17,09:04:42,09:22:57,NA,incomplete,210,gender,2,1,left,C_M_07.jpg,A_M_09.jpg,C_F_01.jpg,left,1262.2100000153296,true,low,false
vSDXTnz7,3atyli1pswfm29bow6spg463876ojo,3tvss0c0e5dq85epqo25oo2qmblwt6,vSDXTnz7,2020-0188,2020-11-17,09:04:42,09:22:57,NA,incomplete,211,gender,2,1,left,C_M_08.jpg,A_M_07.jpg,C_F_05.jpg,left,887.8050000057556,true,low,false
vSDXTnz7,3atyli1pswfm29bow6spg463876ojo,3tvss0c0e5dq85epqo25oo2qmblwt6,vSDXTnz7,2020-0188,2020-11-17,09:04:42,09:22:57,NA,incomplete,212,gender,2,1,right,A_F_12.jpg,A_M_03.jpg,C_F_06.jpg,right,1145.2699999790639,true,low,false
vSDXTnz7,3atyli1pswfm29bow6spg463876ojo,3tvss0c0e5dq85epqo25oo2qmblwt6,vSDXTnz7,2020-0188,2020-11-17,09:04:42,09:22:57,NA,incomplete,213,gender,2,1,left,C_M_02.jpg,A_M_08.jpg,C_F_07.jpg,left,713.1549999467097,true,low,false
vSDXTnz7,3atyli1pswfm29bow6spg463876ojo,3tvss0c0e5dq85epqo25oo2qmblwt6,vSDXTnz7,2020-0188,2020-11-17,09:04:42,09:22:57,NA,incomplete,214,gender,2,0,left,A_M_11.jpg,C_M_13.jpg,A_F_01.jpg,left,1061.9799999985844,true,low,false
vSDXTnz7,3atyli1pswfm29bow6spg463876ojo,3tvss0c0e5dq85epqo25oo2qmblwt6,vSDXTnz7,2020-0188,2020-11-17,09:04:42,09:22:57,NA,incomplete,215,gender,2,1,right,C_M_06.jpg,C_F_16.jpg,A_M_02.jpg,right,853.7500000093132,true,low,false
vSDXTnz7,3atyli1pswfm29bow6spg463876ojo,3tvss0c0e5dq85epqo25oo2qmblwt6,vSDXTnz7,2020-0188,2020-11-17,09:04:42,09:22:57,NA,incomplete,216,gender,2,1,right,A_F_06.jpg,A_M_07.jpg,C_F_15.jpg,right,902.1250000223517,true,low,false
vSDXTnz7,3atyli1pswfm29bow6spg463876ojo,3tvss0c0e5dq85epqo25oo2qmblwt6,vSDXTnz7,2020-0188,2020-11-17,09:04:42,09:22:57,NA,incomplete,217,gender,2,0,left,C_M_11.jpg,A_M_08.jpg,C_F_12.jpg,left,932.9300000099465,true,low,false
vSDXTnz7,3atyli1pswfm29bow6spg463876ojo,3tvss0c0e5dq85epqo25oo2qmblwt6,vSDXTnz7,2020-0188,2020-11-17,09:04:42,09:22:57,NA,incomplete,218,gender,2,1,right,A_F_16.jpg,A_M_01.jpg,C_F_12.jpg,right,619.9349999660626,true,low,false
vSDXTnz7,3atyli1pswfm29bow6spg463876ojo,3tvss0c0e5dq85epqo25oo2qmblwt6,vSDXTnz7,2020-0188,2020-11-17,09:04:42,09:22:57,NA,incomplete,219,gender,2,0,right,C_F_03.jpg,C_M_04.jpg,A_F_02.jpg,right,670.734999992419,true,low,false
vSDXTnz7,3atyli1pswfm29bow6spg463876ojo,3tvss0c0e5dq85epqo25oo2qmblwt6,vSDXTnz7,2020-0188,2020-11-17,09:04:42,09:22:57,NA,incomplete,220,race,3,1,left,C_F_08.jpg,C_M_06.jpg,A_F_12.jpg,right,692.5650000339374,false,low,false
vSDXTnz7,3atyli1pswfm29bow6spg463876ojo,3tvss0c0e5dq85epqo25oo2qmblwt6,vSDXTnz7,2020-0188,2020-11-17,09:04:42,09:22:57,NA,incomplete,221,race,3,1,right,C_F_15.jpg,A_F_03.jpg,C_M_04.jpg,right,919.2099999636412,true,low,false
vSDXTnz7,3atyli1pswfm29bow6spg463876ojo,3tvss0c0e5dq85epqo25oo2qmblwt6,vSDXTnz7,2020-0188,2020-11-17,09:04:42,09:22:57,NA,incomplete,222,race,3,1,left,A_F_08.jpg,A_M_12.jpg,C_F_16.jpg,left,858.574999962002,true,low,false
vSDXTnz7,3atyli1pswfm29bow6spg463876ojo,3tvss0c0e5dq85epqo25oo2qmblwt6,vSDXTnz7,2020-0188,2020-11-17,09:04:42,09:22:57,NA,incomplete,223,race,3,1,right,C_M_07.jpg,A_M_01.jpg,C_F_04.jpg,right,1052.9199999873526,true,low,false
vSDXTnz7,3atyli1pswfm29bow6spg463876ojo,3tvss0c0e5dq85epqo25oo2qmblwt6,vSDXTnz7,2020-0188,2020-11-17,09:04:42,09:22:57,NA,incomplete,224,race,3,1,right,A_M_14.jpg,C_M_12.jpg,A_F_05.jpg,right,842.1649999800138,true,low,false
vSDXTnz7,3atyli1pswfm29bow6spg463876ojo,3tvss0c0e5dq85epqo25oo2qmblwt6,vSDXTnz7,2020-0188,2020-11-17,09:04:42,09:22:57,NA,incomplete,225,race,3,1,right,A_M_16.jpg,C_M_14.jpg,A_F_08.jpg,right,1027.6850000373088,true,low,false
vSDXTnz7,3atyli1pswfm29bow6spg463876ojo,3tvss0c0e5dq85epqo25oo2qmblwt6,vSDXTnz7,2020-0188,2020-11-17,09:04:42,09:22:57,NA,incomplete,226,race,3,1,left,A_M_01.jpg,A_F_07.jpg,C_M_16.jpg,left,722.6500000106171,true,low,false
vSDXTnz7,3atyli1pswfm29bow6spg463876ojo,3tvss0c0e5dq85epqo25oo2qmblwt6,vSDXTnz7,2020-0188,2020-11-17,09:04:42,09:22:57,NA,incomplete,227,race,3,1,left,C_F_13.jpg,C_M_08.jpg,A_F_05.jpg,left,1229.4899999978952,true,low,false
vSDXTnz7,3atyli1pswfm29bow6spg463876ojo,3tvss0c0e5dq85epqo25oo2qmblwt6,vSDXTnz7,2020-0188,2020-11-17,09:04:42,09:22:57,NA,incomplete,228,race,3,1,right,A_M_16.jpg,C_M_13.jpg,A_F_11.jpg,left,1280.9899999992922,false,low,false
vSDXTnz7,3atyli1pswfm29bow6spg463876ojo,3tvss0c0e5dq85epqo25oo2qmblwt6,vSDXTnz7,2020-0188,2020-11-17,09:04:42,09:22:57,NA,incomplete,229,race,3,1,right,A_F_12.jpg,C_F_14.jpg,A_M_10.jpg,left,611.2399999983609,false,low,false
vSDXTnz7,3atyli1pswfm29bow6spg463876ojo,3tvss0c0e5dq85epqo25oo2qmblwt6,vSDXTnz7,2020-0188,2020-11-17,09:04:42,09:22:57,NA,incomplete,230,race,3,1,right,C_F_11.jpg,A_F_10.jpg,C_M_08.jpg,right,1340.4849999933504,true,low,false
vSDXTnz7,3atyli1pswfm29bow6spg463876ojo,3tvss0c0e5dq85epqo25oo2qmblwt6,vSDXTnz7,2020-0188,2020-11-17,09:04:42,09:22:57,NA,incomplete,231,race,3,1,right,A_M_10.jpg,C_M_03.jpg,A_F_05.jpg,right,764.2200000118464,true,low,false
vSDXTnz7,3atyli1pswfm29bow6spg463876ojo,3tvss0c0e5dq85epqo25oo2qmblwt6,vSDXTnz7,2020-0188,2020-11-17,09:04:42,09:22:57,NA,incomplete,232,race,3,1,right,A_M_03.jpg,C_M_01.jpg,A_F_04.jpg,right,1460.1499999989755,true,low,false
vSDXTnz7,3atyli1pswfm29bow6spg463876ojo,3tvss0c0e5dq85epqo25oo2qmblwt6,vSDXTnz7,2020-0188,2020-11-17,09:04:42,09:22:57,NA,incomplete,233,race,3,0,right,C_F_03.jpg,A_F_16.jpg,C_M_06.jpg,right,1243.8299999921583,true,low,false
vSDXTnz7,3atyli1pswfm29bow6spg463876ojo,3tvss0c0e5dq85epqo25oo2qmblwt6,vSDXTnz7,2020-0188,2020-11-17,09:04:42,09:22:57,NA,incomplete,234,race,3,1,left,A_F_16.jpg,A_M_14.jpg,C_F_02.jpg,left,928.4200000111014,true,low,false
vSDXTnz7,3atyli1pswfm29bow6spg463876ojo,3tvss0c0e5dq85epqo25oo2qmblwt6,vSDXTnz7,2020-0188,2020-11-17,09:04:42,09:22:57,NA,incomplete,235,race,3,1,right,A_F_07.jpg,C_F_08.jpg,A_M_10.jpg,right,894.960000005085,true,low,false
vSDXTnz7,3atyli1pswfm29bow6spg463876ojo,3tvss0c0e5dq85epqo25oo2qmblwt6,vSDXTnz7,2020-0188,2020-11-17,09:04:42,09:22:57,NA,incomplete,236,race,3,1,right,A_M_07.jpg,C_M_14.jpg,A_F_09.jpg,right,1046.7100000241771,true,low,false
vSDXTnz7,3atyli1pswfm29bow6spg463876ojo,3tvss0c0e5dq85epqo25oo2qmblwt6,vSDXTnz7,2020-0188,2020-11-17,09:04:42,09:22:57,NA,incomplete,237,race,3,0,left,A_F_15.jpg,A_M_06.jpg,C_F_14.jpg,left,1148.8150000222959,true,low,false
vSDXTnz7,3atyli1pswfm29bow6spg463876ojo,3tvss0c0e5dq85epqo25oo2qmblwt6,vSDXTnz7,2020-0188,2020-11-17,09:04:42,09:22:57,NA,incomplete,238,race,3,1,left,C_F_09.jpg,C_M_06.jpg,A_F_01.jpg,left,929.7200000146404,true,low,false
vSDXTnz7,3atyli1pswfm29bow6spg463876ojo,3tvss0c0e5dq85epqo25oo2qmblwt6,vSDXTnz7,2020-0188,2020-11-17,09:04:42,09:22:57,NA,incomplete,239,race,3,1,right,A_M_09.jpg,C_M_13.jpg,A_F_05.jpg,right,940.5099999858066,true,low,false
vSDXTnz7,3atyli1pswfm29bow6spg463876ojo,3tvss0c0e5dq85epqo25oo2qmblwt6,vSDXTnz7,2020-0188,2020-11-17,09:04:42,09:22:57,NA,NA,instruction example,shape,NA,NA,NA,Green_Star_Stripes_3.jpg,Purple_Star_Dots_1.jpg,Red_Triangle_Grid_3.jpg,NA,NA,NA,NA,undefined
vSDXTnz7,3atyli1pswfm29bow6spg463876ojo,3tvss0c0e5dq85epqo25oo2qmblwt6,vSDXTnz7,2020-0188,2020-11-17,09:04:42,09:22:57,NA,NA,instruction example,shape,NA,NA,NA,Green_Star_Dots_3.jpg,Red_Circle_Grid_3.jpg,Blue_Star_Chess_1.jpg,NA,NA,NA,NA,undefined
vSDXTnz7,3atyli1pswfm29bow6spg463876ojo,3tvss0c0e5dq85epqo25oo2qmblwt6,vSDXTnz7,2020-0188,2020-11-17,09:04:42,09:22:57,NA,NA,instruction example,shape,NA,NA,NA,C_F_14.jpg,A_F_03.jpg,C_M_06.jpg,NA,NA,NA,NA,undefined
vSDXTnz7,3atyli1pswfm29bow6spg463876ojo,3tvss0c0e5dq85epqo25oo2qmblwt6,vSDXTnz7,2020-0188,2020-11-17,09:04:42,09:22:57,NA,NA,instruction example,shape,NA,NA,NA,A_F_09.jpg,A_M_04.jpg,C_F_13.jpg,NA,NA,NA,NA,undefined
