workerId,hitId,assignmentId,subject,studyid,exp_date,exp_start,exp_end,time_start,time_end,trial,type,sequence,reward_validity,answer,image_top,image_left,image_right,response,response_time,response_acc,volatility,age,race,gender,ethnicity,color,vision,neuro,practice
hHTVVu8d,3mdwe879vkfdd3966pwqlqs1zxrb9a,3u088zljvo6pswhysmev4d0ktli0w0,hHTVVu8d,2020-0188,2020-06-04,07:43:48,08:20:24,NA,incomplete,0,filling,0,0,left,Green_Plus_Stripes_1.jpg,Red_Circle_Stripes_2.jpg,Purple_Plus_Dots_3.jpg,left,1545.0049999926705,true,NA,NA,NA,NA,NA,NA,NA,NA,true
hHTVVu8d,3mdwe879vkfdd3966pwqlqs1zxrb9a,3u088zljvo6pswhysmev4d0ktli0w0,hHTVVu8d,2020-0188,2020-06-04,07:43:48,08:20:24,NA,incomplete,1,filling,0,1,right,Blue_Plus_Dots_1.jpg,Red_Plus_Chess_4.jpg,Purple_Star_Dots_2.jpg,right,1488.1400000012945,true,NA,NA,NA,NA,NA,NA,NA,NA,true
hHTVVu8d,3mdwe879vkfdd3966pwqlqs1zxrb9a,3u088zljvo6pswhysmev4d0ktli0w0,hHTVVu8d,2020-0188,2020-06-04,07:43:48,08:20:24,NA,incomplete,2,filling,0,1,right,Purple_Plus_Grid_2.jpg,Blue_Plus_Chess_4.jpg,Green_Star_Grid_1.jpg,left,1286.5100000053644,false,NA,NA,NA,NA,NA,NA,NA,NA,true
hHTVVu8d,3mdwe879vkfdd3966pwqlqs1zxrb9a,3u088zljvo6pswhysmev4d0ktli0w0,hHTVVu8d,2020-0188,2020-06-04,07:43:48,08:20:24,NA,incomplete,3,filling,0,1,right,Green_Star_Grid_2.jpg,Purple_Star_Chess_3.jpg,Blue_Plus_Grid_1.jpg,right,1267.939999990631,true,NA,NA,NA,NA,NA,NA,NA,NA,true
hHTVVu8d,3mdwe879vkfdd3966pwqlqs1zxrb9a,3u088zljvo6pswhysmev4d0ktli0w0,hHTVVu8d,2020-0188,2020-06-04,07:43:48,08:20:24,NA,incomplete,4,filling,0,1,right,Green_Triangle_Grid_3.jpg,Purple_Triangle_Chess_2.jpg,Blue_Circle_Grid_4.jpg,right,1545.734999992419,true,NA,NA,NA,NA,NA,NA,NA,NA,true
hHTVVu8d,3mdwe879vkfdd3966pwqlqs1zxrb9a,3u088zljvo6pswhysmev4d0ktli0w0,hHTVVu8d,2020-0188,2020-06-04,07:43:48,08:20:24,NA,incomplete,5,filling,0,1,right,Green_Triangle_Stripes_4.jpg,Purple_Triangle_Dots_2.jpg,Blue_Plus_Stripes_3.jpg,right,1298.6049999890383,true,NA,NA,NA,NA,NA,NA,NA,NA,true
hHTVVu8d,3mdwe879vkfdd3966pwqlqs1zxrb9a,3u088zljvo6pswhysmev4d0ktli0w0,hHTVVu8d,2020-0188,2020-06-04,07:43:48,08:20:24,NA,incomplete,6,filling,0,0,left,Purple_Triangle_Grid_2.jpg,Green_Circle_Grid_4.jpg,Blue_Triangle_Stripes_3.jpg,left,1202.0350000238977,true,NA,NA,NA,NA,NA,NA,NA,NA,true
hHTVVu8d,3mdwe879vkfdd3966pwqlqs1zxrb9a,3u088zljvo6pswhysmev4d0ktli0w0,hHTVVu8d,2020-0188,2020-06-04,07:43:48,08:20:24,NA,incomplete,7,filling,0,1,right,Red_Star_Dots_4.jpg,Green_Star_Stripes_1.jpg,Blue_Circle_Dots_3.jpg,right,1331.1950000061188,true,NA,NA,NA,NA,NA,NA,NA,NA,true
hHTVVu8d,3mdwe879vkfdd3966pwqlqs1zxrb9a,3u088zljvo6pswhysmev4d0ktli0w0,hHTVVu8d,2020-0188,2020-06-04,07:43:48,08:20:24,NA,incomplete,8,filling,0,1,left,Red_Plus_Stripes_3.jpg,Green_Circle_Stripes_4.jpg,Blue_Plus_Grid_2.jpg,left,1213.5800000105519,true,NA,NA,NA,NA,NA,NA,NA,NA,true
hHTVVu8d,3mdwe879vkfdd3966pwqlqs1zxrb9a,3u088zljvo6pswhysmev4d0ktli0w0,hHTVVu8d,2020-0188,2020-06-04,07:43:48,08:20:24,NA,incomplete,9,filling,0,1,right,Purple_Star_Chess_2.jpg,Red_Star_Dots_3.jpg,Blue_Triangle_Chess_4.jpg,right,1242.004999978235,true,NA,NA,NA,NA,NA,NA,NA,NA,true
hHTVVu8d,3mdwe879vkfdd3966pwqlqs1zxrb9a,3u088zljvo6pswhysmev4d0ktli0w0,hHTVVu8d,2020-0188,2020-06-04,07:43:48,08:20:24,NA,incomplete,10,filling,0,1,right,Red_Star_Grid_3.jpg,Green_Star_Dots_4.jpg,Blue_Triangle_Grid_2.jpg,right,1118.4200000134297,true,NA,NA,NA,NA,NA,NA,NA,NA,true
hHTVVu8d,3mdwe879vkfdd3966pwqlqs1zxrb9a,3u088zljvo6pswhysmev4d0ktli0w0,hHTVVu8d,2020-0188,2020-06-04,07:43:48,08:20:24,NA,incomplete,11,filling,0,1,left,Red_Triangle_Stripes_1.jpg,Blue_Circle_Stripes_4.jpg,Purple_Triangle_Grid_2.jpg,left,1124.4250000163447,true,NA,NA,NA,NA,NA,NA,NA,NA,true
hHTVVu8d,3mdwe879vkfdd3966pwqlqs1zxrb9a,3u088zljvo6pswhysmev4d0ktli0w0,hHTVVu8d,2020-0188,2020-06-04,07:43:48,08:20:24,NA,incomplete,12,filling,0,1,left,Purple_Circle_Stripes_4.jpg,Green_Triangle_Stripes_1.jpg,Blue_Circle_Grid_3.jpg,left,1573.514999996405,true,NA,NA,NA,NA,NA,NA,NA,NA,true
hHTVVu8d,3mdwe879vkfdd3966pwqlqs1zxrb9a,3u088zljvo6pswhysmev4d0ktli0w0,hHTVVu8d,2020-0188,2020-06-04,07:43:48,08:20:24,NA,incomplete,13,filling,0,1,left,Green_Star_Stripes_4.jpg,Red_Plus_Stripes_1.jpg,Purple_Star_Dots_2.jpg,left,1224.7199999983422,true,NA,NA,NA,NA,NA,NA,NA,NA,true
hHTVVu8d,3mdwe879vkfdd3966pwqlqs1zxrb9a,3u088zljvo6pswhysmev4d0ktli0w0,hHTVVu8d,2020-0188,2020-06-04,07:43:48,08:20:24,NA,incomplete,14,filling,0,1,left,Purple_Triangle_Grid_3.jpg,Red_Star_Grid_4.jpg,Blue_Triangle_Chess_2.jpg,left,1238.100000016857,true,NA,NA,NA,NA,NA,NA,NA,NA,true
hHTVVu8d,3mdwe879vkfdd3966pwqlqs1zxrb9a,3u088zljvo6pswhysmev4d0ktli0w0,hHTVVu8d,2020-0188,2020-06-04,07:43:48,08:20:24,NA,incomplete,15,filling,0,1,left,Red_Plus_Stripes_3.jpg,Green_Triangle_Stripes_2.jpg,Blue_Plus_Dots_4.jpg,left,1138.4649999963585,true,NA,NA,NA,NA,NA,NA,NA,NA,true
hHTVVu8d,3mdwe879vkfdd3966pwqlqs1zxrb9a,3u088zljvo6pswhysmev4d0ktli0w0,hHTVVu8d,2020-0188,2020-06-04,07:43:48,08:20:24,NA,incomplete,16,filling,0,0,left,Blue_Triangle_Grid_1.jpg,Green_Circle_Grid_4.jpg,Purple_Triangle_Dots_3.jpg,left,1163.4400000039022,true,NA,NA,NA,NA,NA,NA,NA,NA,true
hHTVVu8d,3mdwe879vkfdd3966pwqlqs1zxrb9a,3u088zljvo6pswhysmev4d0ktli0w0,hHTVVu8d,2020-0188,2020-06-04,07:43:48,08:20:24,NA,incomplete,17,filling,0,1,left,Green_Plus_Chess_4.jpg,Red_Star_Chess_2.jpg,Blue_Plus_Dots_3.jpg,left,1360.5849999876227,true,NA,NA,NA,NA,NA,NA,NA,NA,true
hHTVVu8d,3mdwe879vkfdd3966pwqlqs1zxrb9a,3u088zljvo6pswhysmev4d0ktli0w0,hHTVVu8d,2020-0188,2020-06-04,07:43:48,08:20:24,NA,incomplete,18,filling,0,1,left,Green_Triangle_Chess_1.jpg,Purple_Plus_Chess_3.jpg,Blue_Triangle_Dots_4.jpg,left,1205.6150000134949,true,NA,NA,NA,NA,NA,NA,NA,NA,true
hHTVVu8d,3mdwe879vkfdd3966pwqlqs1zxrb9a,3u088zljvo6pswhysmev4d0ktli0w0,hHTVVu8d,2020-0188,2020-06-04,07:43:48,08:20:24,NA,incomplete,19,filling,0,1,left,Red_Triangle_Stripes_3.jpg,Blue_Circle_Stripes_2.jpg,Purple_Triangle_Chess_1.jpg,left,1191.1250000121072,true,NA,NA,NA,NA,NA,NA,NA,NA,true
hHTVVu8d,3mdwe879vkfdd3966pwqlqs1zxrb9a,3u088zljvo6pswhysmev4d0ktli0w0,hHTVVu8d,2020-0188,2020-06-04,07:43:48,08:20:24,NA,incomplete,20,shape,1,1,right,Purple_Triangle_Chess_1.jpg,Red_Circle_Chess_4.jpg,Green_Triangle_Stripes_3.jpg,right,1068.4149999869987,true,NA,NA,NA,NA,NA,NA,NA,NA,true
hHTVVu8d,3mdwe879vkfdd3966pwqlqs1zxrb9a,3u088zljvo6pswhysmev4d0ktli0w0,hHTVVu8d,2020-0188,2020-06-04,07:43:48,08:20:24,NA,incomplete,21,shape,1,0,right,Blue_Star_Grid_3.jpg,Purple_Triangle_Grid_1.jpg,Red_Star_Stripes_2.jpg,right,1148.0799999844749,true,NA,NA,NA,NA,NA,NA,NA,NA,true
hHTVVu8d,3mdwe879vkfdd3966pwqlqs1zxrb9a,3u088zljvo6pswhysmev4d0ktli0w0,hHTVVu8d,2020-0188,2020-06-04,07:43:48,08:20:24,NA,incomplete,22,shape,1,1,left,Green_Circle_Dots_4.jpg,Purple_Circle_Stripes_1.jpg,Blue_Star_Dots_3.jpg,left,1116.8950000137556,true,NA,NA,NA,NA,NA,NA,NA,NA,true
hHTVVu8d,3mdwe879vkfdd3966pwqlqs1zxrb9a,3u088zljvo6pswhysmev4d0ktli0w0,hHTVVu8d,2020-0188,2020-06-04,07:43:48,08:20:24,NA,incomplete,23,shape,1,1,right,Blue_Circle_Dots_3.jpg,Red_Plus_Dots_1.jpg,Green_Circle_Stripes_2.jpg,right,1014.8249999911059,true,NA,NA,NA,NA,NA,NA,NA,NA,true
hHTVVu8d,3mdwe879vkfdd3966pwqlqs1zxrb9a,3u088zljvo6pswhysmev4d0ktli0w0,hHTVVu8d,2020-0188,2020-06-04,07:43:48,08:20:24,NA,incomplete,24,shape,1,0,right,Blue_Triangle_Stripes_1.jpg,Purple_Plus_Stripes_3.jpg,Red_Triangle_Dots_2.jpg,right,1270.715000020573,true,NA,NA,NA,NA,NA,NA,NA,NA,true
hHTVVu8d,3mdwe879vkfdd3966pwqlqs1zxrb9a,3u088zljvo6pswhysmev4d0ktli0w0,hHTVVu8d,2020-0188,2020-06-04,07:43:48,08:20:24,NA,incomplete,25,shape,1,1,right,Purple_Circle_Dots_2.jpg,Red_Star_Dots_4.jpg,Green_Circle_Stripes_3.jpg,right,1813.0100000125822,true,NA,NA,NA,NA,NA,NA,NA,NA,true
hHTVVu8d,3mdwe879vkfdd3966pwqlqs1zxrb9a,3u088zljvo6pswhysmev4d0ktli0w0,hHTVVu8d,2020-0188,2020-06-04,07:43:48,08:20:24,NA,incomplete,26,shape,1,1,right,Purple_Circle_Chess_2.jpg,Red_Star_Chess_3.jpg,Blue_Circle_Grid_1.jpg,right,1070.960000011837,true,NA,NA,NA,NA,NA,NA,NA,NA,true
hHTVVu8d,3mdwe879vkfdd3966pwqlqs1zxrb9a,3u088zljvo6pswhysmev4d0ktli0w0,hHTVVu8d,2020-0188,2020-06-04,07:43:48,08:20:24,NA,incomplete,27,shape,1,1,right,Blue_Plus_Dots_2.jpg,Purple_Circle_Dots_3.jpg,Red_Plus_Chess_1.jpg,right,1053.0300000100397,true,NA,NA,NA,NA,NA,NA,NA,NA,true
hHTVVu8d,3mdwe879vkfdd3966pwqlqs1zxrb9a,3u088zljvo6pswhysmev4d0ktli0w0,hHTVVu8d,2020-0188,2020-06-04,07:43:48,08:20:24,NA,incomplete,28,shape,1,1,right,Blue_Circle_Dots_2.jpg,Purple_Triangle_Dots_3.jpg,Green_Circle_Grid_1.jpg,right,930.1400000113063,true,NA,NA,NA,NA,NA,NA,NA,NA,true
hHTVVu8d,3mdwe879vkfdd3966pwqlqs1zxrb9a,3u088zljvo6pswhysmev4d0ktli0w0,hHTVVu8d,2020-0188,2020-06-04,07:43:48,08:20:24,NA,incomplete,29,shape,1,1,right,Red_Circle_Dots_1.jpg,Purple_Triangle_Dots_2.jpg,Blue_Circle_Stripes_4.jpg,right,1103.8949999783654,true,NA,NA,NA,NA,NA,NA,NA,NA,true
hHTVVu8d,3mdwe879vkfdd3966pwqlqs1zxrb9a,3u088zljvo6pswhysmev4d0ktli0w0,hHTVVu8d,2020-0188,2020-06-04,07:43:48,08:20:24,NA,incomplete,30,shape,1,0,left,Red_Star_Stripes_3.jpg,Blue_Star_Dots_4.jpg,Purple_Circle_Stripes_2.jpg,left,948.6899999901652,true,NA,NA,NA,NA,NA,NA,NA,NA,true
hHTVVu8d,3mdwe879vkfdd3966pwqlqs1zxrb9a,3u088zljvo6pswhysmev4d0ktli0w0,hHTVVu8d,2020-0188,2020-06-04,07:43:48,08:20:24,NA,incomplete,31,shape,1,1,right,Purple_Plus_Grid_3.jpg,Green_Star_Grid_4.jpg,Blue_Plus_Chess_1.jpg,right,959.4449999858625,true,NA,NA,NA,NA,NA,NA,NA,NA,true
hHTVVu8d,3mdwe879vkfdd3966pwqlqs1zxrb9a,3u088zljvo6pswhysmev4d0ktli0w0,hHTVVu8d,2020-0188,2020-06-04,07:43:48,08:20:24,NA,incomplete,32,shape,1,1,right,Blue_Star_Dots_1.jpg,Green_Circle_Dots_3.jpg,Red_Star_Stripes_2.jpg,right,1062.5850000069477,true,NA,NA,NA,NA,NA,NA,NA,NA,true
hHTVVu8d,3mdwe879vkfdd3966pwqlqs1zxrb9a,3u088zljvo6pswhysmev4d0ktli0w0,hHTVVu8d,2020-0188,2020-06-04,07:43:48,08:20:24,NA,incomplete,33,shape,1,0,right,Green_Plus_Stripes_4.jpg,Red_Star_Stripes_3.jpg,Purple_Plus_Grid_2.jpg,right,1002.3149999906309,true,NA,NA,NA,NA,NA,NA,NA,NA,true
hHTVVu8d,3mdwe879vkfdd3966pwqlqs1zxrb9a,3u088zljvo6pswhysmev4d0ktli0w0,hHTVVu8d,2020-0188,2020-06-04,07:43:48,08:20:24,NA,incomplete,34,shape,1,1,right,Red_Plus_Dots_2.jpg,Green_Triangle_Dots_4.jpg,Blue_Plus_Stripes_3.jpg,right,962.4400000029709,true,NA,NA,NA,NA,NA,NA,NA,NA,true
hHTVVu8d,3mdwe879vkfdd3966pwqlqs1zxrb9a,3u088zljvo6pswhysmev4d0ktli0w0,hHTVVu8d,2020-0188,2020-06-04,07:43:48,08:20:24,NA,incomplete,35,shape,1,1,right,Red_Circle_Dots_2.jpg,Green_Plus_Dots_4.jpg,Blue_Circle_Grid_3.jpg,right,1026.7250000033528,true,NA,NA,NA,NA,NA,NA,NA,NA,true
hHTVVu8d,3mdwe879vkfdd3966pwqlqs1zxrb9a,3u088zljvo6pswhysmev4d0ktli0w0,hHTVVu8d,2020-0188,2020-06-04,07:43:48,08:20:24,NA,incomplete,36,shape,1,1,left,Red_Star_Grid_3.jpg,Green_Star_Stripes_1.jpg,Blue_Circle_Grid_4.jpg,left,922.2949999966659,true,NA,NA,NA,NA,NA,NA,NA,NA,true
hHTVVu8d,3mdwe879vkfdd3966pwqlqs1zxrb9a,3u088zljvo6pswhysmev4d0ktli0w0,hHTVVu8d,2020-0188,2020-06-04,07:43:48,08:20:24,NA,incomplete,37,shape,1,0,left,Purple_Plus_Chess_1.jpg,Green_Plus_Stripes_4.jpg,Blue_Star_Chess_2.jpg,left,1062.1600000013132,true,NA,NA,NA,NA,NA,NA,NA,NA,true
hHTVVu8d,3mdwe879vkfdd3966pwqlqs1zxrb9a,3u088zljvo6pswhysmev4d0ktli0w0,hHTVVu8d,2020-0188,2020-06-04,07:43:48,08:20:24,NA,incomplete,38,shape,1,1,left,Green_Triangle_Chess_2.jpg,Red_Triangle_Grid_1.jpg,Purple_Star_Chess_4.jpg,left,874.664999981178,true,NA,NA,NA,NA,NA,NA,NA,NA,true
hHTVVu8d,3mdwe879vkfdd3966pwqlqs1zxrb9a,3u088zljvo6pswhysmev4d0ktli0w0,hHTVVu8d,2020-0188,2020-06-04,07:43:48,08:20:24,NA,incomplete,39,shape,1,1,right,Red_Plus_Grid_3.jpg,Blue_Triangle_Grid_2.jpg,Green_Plus_Dots_4.jpg,right,934.2950000136625,true,NA,NA,NA,NA,NA,NA,NA,NA,true
hHTVVu8d,3mdwe879vkfdd3966pwqlqs1zxrb9a,3u088zljvo6pswhysmev4d0ktli0w0,hHTVVu8d,2020-0188,2020-06-04,07:43:48,08:20:24,NA,incomplete,0,filling,0,1,left,Blue_Plus_Dots_4.jpg,Green_Circle_Dots_1.jpg,Red_Plus_Stripes_2.jpg,left,882.9899999836925,true,high,NA,NA,NA,NA,NA,NA,NA,false
hHTVVu8d,3mdwe879vkfdd3966pwqlqs1zxrb9a,3u088zljvo6pswhysmev4d0ktli0w0,hHTVVu8d,2020-0188,2020-06-04,07:43:48,08:20:24,NA,incomplete,1,filling,0,1,right,Red_Triangle_Dots_4.jpg,Purple_Triangle_Stripes_1.jpg,Green_Circle_Dots_2.jpg,right,962.0500000019092,true,high,NA,NA,NA,NA,NA,NA,NA,false
hHTVVu8d,3mdwe879vkfdd3966pwqlqs1zxrb9a,3u088zljvo6pswhysmev4d0ktli0w0,hHTVVu8d,2020-0188,2020-06-04,07:43:48,08:20:24,NA,incomplete,2,filling,0,0,left,Blue_Circle_Grid_1.jpg,Purple_Triangle_Grid_3.jpg,Green_Circle_Chess_2.jpg,left,796.6750000196043,true,high,NA,NA,NA,NA,NA,NA,NA,false
hHTVVu8d,3mdwe879vkfdd3966pwqlqs1zxrb9a,3u088zljvo6pswhysmev4d0ktli0w0,hHTVVu8d,2020-0188,2020-06-04,07:43:48,08:20:24,NA,incomplete,3,filling,0,1,left,Green_Star_Stripes_4.jpg,Red_Circle_Stripes_1.jpg,Purple_Star_Grid_2.jpg,left,963.5049999924377,true,high,NA,NA,NA,NA,NA,NA,NA,false
hHTVVu8d,3mdwe879vkfdd3966pwqlqs1zxrb9a,3u088zljvo6pswhysmev4d0ktli0w0,hHTVVu8d,2020-0188,2020-06-04,07:43:48,08:20:24,NA,incomplete,4,filling,0,1,left,Blue_Triangle_Dots_1.jpg,Green_Circle_Dots_2.jpg,Red_Triangle_Chess_3.jpg,left,829.234999982873,true,high,NA,NA,NA,NA,NA,NA,NA,false
hHTVVu8d,3mdwe879vkfdd3966pwqlqs1zxrb9a,3u088zljvo6pswhysmev4d0ktli0w0,hHTVVu8d,2020-0188,2020-06-04,07:43:48,08:20:24,NA,incomplete,5,filling,0,1,right,Red_Plus_Stripes_1.jpg,Green_Plus_Grid_3.jpg,Purple_Circle_Stripes_4.jpg,right,1141.7399999918416,true,high,NA,NA,NA,NA,NA,NA,NA,false
hHTVVu8d,3mdwe879vkfdd3966pwqlqs1zxrb9a,3u088zljvo6pswhysmev4d0ktli0w0,hHTVVu8d,2020-0188,2020-06-04,07:43:48,08:20:24,NA,incomplete,6,filling,0,0,left,Purple_Plus_Chess_1.jpg,Green_Circle_Chess_4.jpg,Red_Plus_Stripes_3.jpg,left,799.4349999935366,true,high,NA,NA,NA,NA,NA,NA,NA,false
hHTVVu8d,3mdwe879vkfdd3966pwqlqs1zxrb9a,3u088zljvo6pswhysmev4d0ktli0w0,hHTVVu8d,2020-0188,2020-06-04,07:43:48,08:20:24,NA,incomplete,7,filling,0,1,right,Blue_Triangle_Dots_3.jpg,Red_Triangle_Chess_2.jpg,Green_Circle_Dots_4.jpg,right,942.9050000035204,true,high,NA,NA,NA,NA,NA,NA,NA,false
hHTVVu8d,3mdwe879vkfdd3966pwqlqs1zxrb9a,3u088zljvo6pswhysmev4d0ktli0w0,hHTVVu8d,2020-0188,2020-06-04,07:43:48,08:20:24,NA,incomplete,8,filling,0,0,right,Red_Circle_Dots_4.jpg,Blue_Circle_Chess_3.jpg,Green_Triangle_Dots_1.jpg,right,845.195000001695,true,high,NA,NA,NA,NA,NA,NA,NA,false
hHTVVu8d,3mdwe879vkfdd3966pwqlqs1zxrb9a,3u088zljvo6pswhysmev4d0ktli0w0,hHTVVu8d,2020-0188,2020-06-04,07:43:48,08:20:24,NA,incomplete,9,filling,0,1,left,Purple_Star_Dots_3.jpg,Red_Triangle_Dots_1.jpg,Blue_Star_Chess_2.jpg,left,844.9800000234973,true,high,NA,NA,NA,NA,NA,NA,NA,false
hHTVVu8d,3mdwe879vkfdd3966pwqlqs1zxrb9a,3u088zljvo6pswhysmev4d0ktli0w0,hHTVVu8d,2020-0188,2020-06-04,07:43:48,08:20:24,NA,incomplete,10,shape,1,1,right,Red_Star_Dots_4.jpg,Blue_Plus_Dots_2.jpg,Purple_Star_Chess_3.jpg,left,905.9999999881256,false,high,NA,NA,NA,NA,NA,NA,NA,false
hHTVVu8d,3mdwe879vkfdd3966pwqlqs1zxrb9a,3u088zljvo6pswhysmev4d0ktli0w0,hHTVVu8d,2020-0188,2020-06-04,07:43:48,08:20:24,NA,incomplete,11,shape,1,1,right,Purple_Plus_Chess_1.jpg,Red_Triangle_Chess_2.jpg,Blue_Plus_Dots_3.jpg,left,883.7099999946076,false,high,NA,NA,NA,NA,NA,NA,NA,false
hHTVVu8d,3mdwe879vkfdd3966pwqlqs1zxrb9a,3u088zljvo6pswhysmev4d0ktli0w0,hHTVVu8d,2020-0188,2020-06-04,07:43:48,08:20:24,NA,incomplete,12,shape,1,0,left,Blue_Star_Chess_4.jpg,Green_Star_Grid_1.jpg,Purple_Plus_Chess_2.jpg,left,661.1499999999069,true,high,NA,NA,NA,NA,NA,NA,NA,false
hHTVVu8d,3mdwe879vkfdd3966pwqlqs1zxrb9a,3u088zljvo6pswhysmev4d0ktli0w0,hHTVVu8d,2020-0188,2020-06-04,07:43:48,08:20:24,NA,incomplete,13,shape,1,1,left,Blue_Star_Grid_2.jpg,Green_Star_Stripes_4.jpg,Red_Triangle_Grid_1.jpg,right,1050.760000012815,false,high,NA,NA,NA,NA,NA,NA,NA,false
hHTVVu8d,3mdwe879vkfdd3966pwqlqs1zxrb9a,3u088zljvo6pswhysmev4d0ktli0w0,hHTVVu8d,2020-0188,2020-06-04,07:43:48,08:20:24,NA,incomplete,14,shape,1,1,right,Blue_Circle_Stripes_2.jpg,Purple_Star_Stripes_3.jpg,Red_Circle_Grid_1.jpg,left,842.1899999957532,false,high,NA,NA,NA,NA,NA,NA,NA,false
hHTVVu8d,3mdwe879vkfdd3966pwqlqs1zxrb9a,3u088zljvo6pswhysmev4d0ktli0w0,hHTVVu8d,2020-0188,2020-06-04,07:43:48,08:20:24,NA,incomplete,15,shape,1,0,right,Red_Star_Dots_2.jpg,Green_Plus_Dots_4.jpg,Purple_Star_Stripes_3.jpg,right,803.1250000058208,true,high,NA,NA,NA,NA,NA,NA,NA,false
hHTVVu8d,3mdwe879vkfdd3966pwqlqs1zxrb9a,3u088zljvo6pswhysmev4d0ktli0w0,hHTVVu8d,2020-0188,2020-06-04,07:43:48,08:20:24,NA,incomplete,16,shape,1,0,left,Blue_Circle_Chess_4.jpg,Purple_Circle_Grid_3.jpg,Green_Plus_Chess_2.jpg,right,1075.5000000062864,false,high,NA,NA,NA,NA,NA,NA,NA,false
hHTVVu8d,3mdwe879vkfdd3966pwqlqs1zxrb9a,3u088zljvo6pswhysmev4d0ktli0w0,hHTVVu8d,2020-0188,2020-06-04,07:43:48,08:20:24,NA,incomplete,17,shape,1,1,left,Blue_Triangle_Stripes_2.jpg,Purple_Triangle_Chess_1.jpg,Red_Circle_Stripes_3.jpg,right,865.8799999975599,false,high,NA,NA,NA,NA,NA,NA,NA,false
hHTVVu8d,3mdwe879vkfdd3966pwqlqs1zxrb9a,3u088zljvo6pswhysmev4d0ktli0w0,hHTVVu8d,2020-0188,2020-06-04,07:43:48,08:20:24,NA,incomplete,18,shape,1,0,left,Green_Star_Stripes_2.jpg,Blue_Star_Dots_4.jpg,Purple_Triangle_Stripes_1.jpg,right,1090.9950000059325,false,high,NA,NA,NA,NA,NA,NA,NA,false
hHTVVu8d,3mdwe879vkfdd3966pwqlqs1zxrb9a,3u088zljvo6pswhysmev4d0ktli0w0,hHTVVu8d,2020-0188,2020-06-04,07:43:48,08:20:24,NA,incomplete,19,shape,1,1,right,Blue_Plus_Stripes_2.jpg,Green_Triangle_Stripes_1.jpg,Red_Plus_Chess_3.jpg,left,782.3200000275392,false,high,NA,NA,NA,NA,NA,NA,NA,false
hHTVVu8d,3mdwe879vkfdd3966pwqlqs1zxrb9a,3u088zljvo6pswhysmev4d0ktli0w0,hHTVVu8d,2020-0188,2020-06-04,07:43:48,08:20:24,NA,incomplete,20,filling,0,1,right,Purple_Circle_Stripes_2.jpg,Blue_Circle_Dots_1.jpg,Green_Star_Stripes_3.jpg,right,833.9500000001863,true,high,NA,NA,NA,NA,NA,NA,NA,false
hHTVVu8d,3mdwe879vkfdd3966pwqlqs1zxrb9a,3u088zljvo6pswhysmev4d0ktli0w0,hHTVVu8d,2020-0188,2020-06-04,07:43:48,08:20:24,NA,incomplete,21,filling,0,1,left,Purple_Circle_Stripes_2.jpg,Blue_Plus_Stripes_1.jpg,Red_Circle_Chess_3.jpg,left,825.0950000074226,true,high,NA,NA,NA,NA,NA,NA,NA,false
hHTVVu8d,3mdwe879vkfdd3966pwqlqs1zxrb9a,3u088zljvo6pswhysmev4d0ktli0w0,hHTVVu8d,2020-0188,2020-06-04,07:43:48,08:20:24,NA,incomplete,22,filling,0,0,left,Red_Triangle_Stripes_4.jpg,Green_Plus_Stripes_2.jpg,Blue_Triangle_Dots_3.jpg,left,847.0550000201911,true,high,NA,NA,NA,NA,NA,NA,NA,false
hHTVVu8d,3mdwe879vkfdd3966pwqlqs1zxrb9a,3u088zljvo6pswhysmev4d0ktli0w0,hHTVVu8d,2020-0188,2020-06-04,07:43:48,08:20:24,NA,incomplete,23,filling,0,1,left,Red_Triangle_Stripes_3.jpg,Purple_Plus_Stripes_4.jpg,Green_Triangle_Grid_1.jpg,left,930.2849999803584,true,high,NA,NA,NA,NA,NA,NA,NA,false
hHTVVu8d,3mdwe879vkfdd3966pwqlqs1zxrb9a,3u088zljvo6pswhysmev4d0ktli0w0,hHTVVu8d,2020-0188,2020-06-04,07:43:48,08:20:24,NA,incomplete,24,filling,0,1,left,Green_Plus_Chess_4.jpg,Purple_Triangle_Chess_3.jpg,Blue_Plus_Dots_1.jpg,left,989.8600000014994,true,high,NA,NA,NA,NA,NA,NA,NA,false
hHTVVu8d,3mdwe879vkfdd3966pwqlqs1zxrb9a,3u088zljvo6pswhysmev4d0ktli0w0,hHTVVu8d,2020-0188,2020-06-04,07:43:48,08:20:24,NA,incomplete,25,filling,0,1,right,Purple_Triangle_Stripes_2.jpg,Green_Triangle_Grid_1.jpg,Blue_Star_Stripes_4.jpg,right,762.894999992568,true,high,NA,NA,NA,NA,NA,NA,NA,false
hHTVVu8d,3mdwe879vkfdd3966pwqlqs1zxrb9a,3u088zljvo6pswhysmev4d0ktli0w0,hHTVVu8d,2020-0188,2020-06-04,07:43:48,08:20:24,NA,incomplete,26,filling,0,1,left,Red_Circle_Chess_4.jpg,Purple_Star_Chess_3.jpg,Blue_Circle_Grid_1.jpg,left,1055.434999987483,true,high,NA,NA,NA,NA,NA,NA,NA,false
hHTVVu8d,3mdwe879vkfdd3966pwqlqs1zxrb9a,3u088zljvo6pswhysmev4d0ktli0w0,hHTVVu8d,2020-0188,2020-06-04,07:43:48,08:20:24,NA,incomplete,27,filling,0,1,left,Green_Plus_Stripes_3.jpg,Red_Star_Stripes_2.jpg,Blue_Plus_Chess_1.jpg,left,1041.014999995241,true,high,NA,NA,NA,NA,NA,NA,NA,false
hHTVVu8d,3mdwe879vkfdd3966pwqlqs1zxrb9a,3u088zljvo6pswhysmev4d0ktli0w0,hHTVVu8d,2020-0188,2020-06-04,07:43:48,08:20:24,NA,incomplete,28,filling,0,0,right,Red_Plus_Grid_3.jpg,Blue_Plus_Chess_4.jpg,Green_Circle_Grid_2.jpg,right,1081.030000001192,true,high,NA,NA,NA,NA,NA,NA,NA,false
hHTVVu8d,3mdwe879vkfdd3966pwqlqs1zxrb9a,3u088zljvo6pswhysmev4d0ktli0w0,hHTVVu8d,2020-0188,2020-06-04,07:43:48,08:20:24,NA,incomplete,29,filling,0,0,left,Red_Star_Stripes_2.jpg,Blue_Plus_Stripes_3.jpg,Green_Star_Chess_4.jpg,left,802.5199999974575,true,high,NA,NA,NA,NA,NA,NA,NA,false
hHTVVu8d,3mdwe879vkfdd3966pwqlqs1zxrb9a,3u088zljvo6pswhysmev4d0ktli0w0,hHTVVu8d,2020-0188,2020-06-04,07:43:48,08:20:24,NA,incomplete,30,shape,1,1,left,Green_Circle_Grid_4.jpg,Blue_Circle_Stripes_1.jpg,Red_Plus_Grid_2.jpg,right,852.565000008326,false,high,NA,NA,NA,NA,NA,NA,NA,false
hHTVVu8d,3mdwe879vkfdd3966pwqlqs1zxrb9a,3u088zljvo6pswhysmev4d0ktli0w0,hHTVVu8d,2020-0188,2020-06-04,07:43:48,08:20:24,NA,incomplete,31,shape,1,1,right,Blue_Plus_Chess_1.jpg,Red_Circle_Chess_4.jpg,Purple_Plus_Grid_2.jpg,left,869.1950000065845,false,high,NA,NA,NA,NA,NA,NA,NA,false
hHTVVu8d,3mdwe879vkfdd3966pwqlqs1zxrb9a,3u088zljvo6pswhysmev4d0ktli0w0,hHTVVu8d,2020-0188,2020-06-04,07:43:48,08:20:24,NA,incomplete,32,shape,1,1,left,Blue_Plus_Dots_3.jpg,Red_Plus_Stripes_1.jpg,Green_Triangle_Dots_4.jpg,left,611.559999990277,true,high,NA,NA,NA,NA,NA,NA,NA,false
hHTVVu8d,3mdwe879vkfdd3966pwqlqs1zxrb9a,3u088zljvo6pswhysmev4d0ktli0w0,hHTVVu8d,2020-0188,2020-06-04,07:43:48,08:20:24,NA,incomplete,33,shape,1,1,right,Red_Circle_Grid_2.jpg,Purple_Plus_Grid_1.jpg,Blue_Circle_Stripes_4.jpg,right,604.8100000189152,true,high,NA,NA,NA,NA,NA,NA,NA,false
hHTVVu8d,3mdwe879vkfdd3966pwqlqs1zxrb9a,3u088zljvo6pswhysmev4d0ktli0w0,hHTVVu8d,2020-0188,2020-06-04,07:43:48,08:20:24,NA,incomplete,34,shape,1,1,right,Red_Circle_Stripes_1.jpg,Blue_Plus_Stripes_4.jpg,Purple_Circle_Chess_2.jpg,right,613.3899999840651,true,high,NA,NA,NA,NA,NA,NA,NA,false
hHTVVu8d,3mdwe879vkfdd3966pwqlqs1zxrb9a,3u088zljvo6pswhysmev4d0ktli0w0,hHTVVu8d,2020-0188,2020-06-04,07:43:48,08:20:24,NA,incomplete,35,shape,1,1,left,Green_Star_Chess_4.jpg,Red_Star_Dots_2.jpg,Blue_Plus_Chess_3.jpg,left,542.7850000269245,true,high,NA,NA,NA,NA,NA,NA,NA,false
hHTVVu8d,3mdwe879vkfdd3966pwqlqs1zxrb9a,3u088zljvo6pswhysmev4d0ktli0w0,hHTVVu8d,2020-0188,2020-06-04,07:43:48,08:20:24,NA,incomplete,36,shape,1,0,right,Red_Star_Stripes_3.jpg,Blue_Circle_Stripes_4.jpg,Green_Star_Grid_1.jpg,right,696.4449999795761,true,high,NA,NA,NA,NA,NA,NA,NA,false
hHTVVu8d,3mdwe879vkfdd3966pwqlqs1zxrb9a,3u088zljvo6pswhysmev4d0ktli0w0,hHTVVu8d,2020-0188,2020-06-04,07:43:48,08:20:24,NA,incomplete,37,shape,1,1,left,Purple_Star_Dots_4.jpg,Red_Star_Stripes_3.jpg,Green_Triangle_Dots_2.jpg,right,998.6649999918882,false,high,NA,NA,NA,NA,NA,NA,NA,false
hHTVVu8d,3mdwe879vkfdd3966pwqlqs1zxrb9a,3u088zljvo6pswhysmev4d0ktli0w0,hHTVVu8d,2020-0188,2020-06-04,07:43:48,08:20:24,NA,incomplete,38,shape,1,1,right,Red_Star_Chess_2.jpg,Green_Triangle_Chess_4.jpg,Purple_Star_Grid_1.jpg,right,868.2299999927636,true,high,NA,NA,NA,NA,NA,NA,NA,false
hHTVVu8d,3mdwe879vkfdd3966pwqlqs1zxrb9a,3u088zljvo6pswhysmev4d0ktli0w0,hHTVVu8d,2020-0188,2020-06-04,07:43:48,08:20:24,NA,incomplete,39,shape,1,1,left,Purple_Circle_Stripes_3.jpg,Blue_Circle_Grid_2.jpg,Green_Star_Stripes_1.jpg,left,610.6949999812059,true,high,NA,NA,NA,NA,NA,NA,NA,false
hHTVVu8d,3mdwe879vkfdd3966pwqlqs1zxrb9a,3u088zljvo6pswhysmev4d0ktli0w0,hHTVVu8d,2020-0188,2020-06-04,07:43:48,08:20:24,NA,incomplete,40,filling,0,1,left,Purple_Plus_Dots_3.jpg,Red_Circle_Dots_2.jpg,Green_Plus_Chess_4.jpg,right,603.5100000153761,false,high,NA,NA,NA,NA,NA,NA,NA,false
hHTVVu8d,3mdwe879vkfdd3966pwqlqs1zxrb9a,3u088zljvo6pswhysmev4d0ktli0w0,hHTVVu8d,2020-0188,2020-06-04,07:43:48,08:20:24,NA,incomplete,41,filling,0,1,right,Green_Triangle_Dots_3.jpg,Purple_Triangle_Chess_2.jpg,Blue_Circle_Dots_1.jpg,left,623.875000019325,false,high,NA,NA,NA,NA,NA,NA,NA,false
hHTVVu8d,3mdwe879vkfdd3966pwqlqs1zxrb9a,3u088zljvo6pswhysmev4d0ktli0w0,hHTVVu8d,2020-0188,2020-06-04,07:43:48,08:20:24,NA,incomplete,42,filling,0,1,left,Red_Star_Chess_4.jpg,Blue_Circle_Chess_1.jpg,Purple_Star_Dots_2.jpg,right,659.9500000011176,false,high,NA,NA,NA,NA,NA,NA,NA,false
hHTVVu8d,3mdwe879vkfdd3966pwqlqs1zxrb9a,3u088zljvo6pswhysmev4d0ktli0w0,hHTVVu8d,2020-0188,2020-06-04,07:43:48,08:20:24,NA,incomplete,43,filling,0,0,left,Blue_Plus_Chess_2.jpg,Green_Triangle_Chess_4.jpg,Purple_Plus_Dots_3.jpg,left,744.2299999820534,true,high,NA,NA,NA,NA,NA,NA,NA,false
hHTVVu8d,3mdwe879vkfdd3966pwqlqs1zxrb9a,3u088zljvo6pswhysmev4d0ktli0w0,hHTVVu8d,2020-0188,2020-06-04,07:43:48,08:20:24,NA,incomplete,44,filling,0,0,left,Red_Triangle_Stripes_3.jpg,Purple_Star_Stripes_2.jpg,Green_Triangle_Grid_4.jpg,left,1342.9349999933038,true,high,NA,NA,NA,NA,NA,NA,NA,false
hHTVVu8d,3mdwe879vkfdd3966pwqlqs1zxrb9a,3u088zljvo6pswhysmev4d0ktli0w0,hHTVVu8d,2020-0188,2020-06-04,07:43:48,08:20:24,NA,incomplete,45,filling,0,1,left,Green_Triangle_Dots_3.jpg,Red_Plus_Dots_1.jpg,Blue_Triangle_Chess_2.jpg,right,645.9949999989476,false,high,NA,NA,NA,NA,NA,NA,NA,false
hHTVVu8d,3mdwe879vkfdd3966pwqlqs1zxrb9a,3u088zljvo6pswhysmev4d0ktli0w0,hHTVVu8d,2020-0188,2020-06-04,07:43:48,08:20:24,NA,incomplete,46,filling,0,1,right,Red_Plus_Grid_3.jpg,Blue_Plus_Chess_1.jpg,Green_Triangle_Grid_2.jpg,left,769.0000000002328,false,high,NA,NA,NA,NA,NA,NA,NA,false
hHTVVu8d,3mdwe879vkfdd3966pwqlqs1zxrb9a,3u088zljvo6pswhysmev4d0ktli0w0,hHTVVu8d,2020-0188,2020-06-04,07:43:48,08:20:24,NA,incomplete,47,filling,0,1,left,Green_Circle_Chess_1.jpg,Blue_Triangle_Chess_3.jpg,Red_Circle_Grid_4.jpg,right,984.2700000153854,false,high,NA,NA,NA,NA,NA,NA,NA,false
hHTVVu8d,3mdwe879vkfdd3966pwqlqs1zxrb9a,3u088zljvo6pswhysmev4d0ktli0w0,hHTVVu8d,2020-0188,2020-06-04,07:43:48,08:20:24,NA,incomplete,48,filling,0,1,right,Purple_Star_Stripes_1.jpg,Red_Star_Chess_4.jpg,Blue_Plus_Stripes_3.jpg,right,888.7550000217743,true,high,NA,NA,NA,NA,NA,NA,NA,false
hHTVVu8d,3mdwe879vkfdd3966pwqlqs1zxrb9a,3u088zljvo6pswhysmev4d0ktli0w0,hHTVVu8d,2020-0188,2020-06-04,07:43:48,08:20:24,NA,incomplete,49,filling,0,1,right,Red_Triangle_Grid_2.jpg,Green_Triangle_Dots_1.jpg,Blue_Star_Grid_3.jpg,right,928.7849999964237,true,high,NA,NA,NA,NA,NA,NA,NA,false
hHTVVu8d,3mdwe879vkfdd3966pwqlqs1zxrb9a,3u088zljvo6pswhysmev4d0ktli0w0,hHTVVu8d,2020-0188,2020-06-04,07:43:48,08:20:24,NA,incomplete,50,shape,1,1,right,Green_Plus_Dots_1.jpg,Blue_Triangle_Dots_4.jpg,Purple_Plus_Chess_3.jpg,left,692.9850000014994,false,high,NA,NA,NA,NA,NA,NA,NA,false
hHTVVu8d,3mdwe879vkfdd3966pwqlqs1zxrb9a,3u088zljvo6pswhysmev4d0ktli0w0,hHTVVu8d,2020-0188,2020-06-04,07:43:48,08:20:24,NA,incomplete,51,shape,1,1,left,Purple_Star_Stripes_3.jpg,Red_Star_Dots_2.jpg,Blue_Triangle_Stripes_1.jpg,right,757.114999985788,false,high,NA,NA,NA,NA,NA,NA,NA,false
hHTVVu8d,3mdwe879vkfdd3966pwqlqs1zxrb9a,3u088zljvo6pswhysmev4d0ktli0w0,hHTVVu8d,2020-0188,2020-06-04,07:43:48,08:20:24,NA,incomplete,52,shape,1,1,left,Purple_Triangle_Dots_4.jpg,Blue_Triangle_Chess_3.jpg,Green_Star_Dots_1.jpg,right,812.3950000153854,false,high,NA,NA,NA,NA,NA,NA,NA,false
hHTVVu8d,3mdwe879vkfdd3966pwqlqs1zxrb9a,3u088zljvo6pswhysmev4d0ktli0w0,hHTVVu8d,2020-0188,2020-06-04,07:43:48,08:20:24,NA,incomplete,53,shape,1,1,right,Blue_Circle_Stripes_1.jpg,Red_Triangle_Stripes_3.jpg,Green_Circle_Chess_2.jpg,left,850.9250000061002,false,high,NA,NA,NA,NA,NA,NA,NA,false
hHTVVu8d,3mdwe879vkfdd3966pwqlqs1zxrb9a,3u088zljvo6pswhysmev4d0ktli0w0,hHTVVu8d,2020-0188,2020-06-04,07:43:48,08:20:24,NA,incomplete,54,shape,1,0,right,Green_Plus_Grid_1.jpg,Red_Triangle_Grid_4.jpg,Purple_Plus_Dots_3.jpg,left,921.2750000006054,false,high,NA,NA,NA,NA,NA,NA,NA,false
hHTVVu8d,3mdwe879vkfdd3966pwqlqs1zxrb9a,3u088zljvo6pswhysmev4d0ktli0w0,hHTVVu8d,2020-0188,2020-06-04,07:43:48,08:20:24,NA,incomplete,55,shape,1,0,right,Red_Triangle_Grid_2.jpg,Blue_Plus_Grid_1.jpg,Purple_Triangle_Chess_3.jpg,left,881.2599999946542,false,high,NA,NA,NA,NA,NA,NA,NA,false
hHTVVu8d,3mdwe879vkfdd3966pwqlqs1zxrb9a,3u088zljvo6pswhysmev4d0ktli0w0,hHTVVu8d,2020-0188,2020-06-04,07:43:48,08:20:24,NA,incomplete,56,shape,1,0,right,Green_Triangle_Grid_4.jpg,Red_Plus_Grid_2.jpg,Blue_Triangle_Stripes_3.jpg,left,829.4099999766331,false,high,NA,NA,NA,NA,NA,NA,NA,false
hHTVVu8d,3mdwe879vkfdd3966pwqlqs1zxrb9a,3u088zljvo6pswhysmev4d0ktli0w0,hHTVVu8d,2020-0188,2020-06-04,07:43:48,08:20:24,NA,incomplete,57,shape,1,1,right,Blue_Circle_Dots_1.jpg,Green_Triangle_Dots_2.jpg,Purple_Circle_Chess_4.jpg,left,742.9450000054203,false,high,NA,NA,NA,NA,NA,NA,NA,false
hHTVVu8d,3mdwe879vkfdd3966pwqlqs1zxrb9a,3u088zljvo6pswhysmev4d0ktli0w0,hHTVVu8d,2020-0188,2020-06-04,07:43:48,08:20:24,NA,incomplete,58,shape,1,1,left,Purple_Circle_Grid_4.jpg,Blue_Circle_Dots_2.jpg,Green_Star_Grid_3.jpg,right,875.1800000027288,false,high,NA,NA,NA,NA,NA,NA,NA,false
hHTVVu8d,3mdwe879vkfdd3966pwqlqs1zxrb9a,3u088zljvo6pswhysmev4d0ktli0w0,hHTVVu8d,2020-0188,2020-06-04,07:43:48,08:20:24,NA,incomplete,59,shape,1,1,right,Blue_Star_Dots_2.jpg,Green_Triangle_Dots_3.jpg,Purple_Star_Chess_1.jpg,left,805.2800000004936,false,high,NA,NA,NA,NA,NA,NA,NA,false
hHTVVu8d,3mdwe879vkfdd3966pwqlqs1zxrb9a,3u088zljvo6pswhysmev4d0ktli0w0,hHTVVu8d,2020-0188,2020-06-04,07:43:48,08:20:24,NA,incomplete,60,filling,0,1,right,Red_Plus_Grid_4.jpg,Purple_Plus_Chess_1.jpg,Green_Star_Grid_2.jpg,right,971.4849999872968,true,high,NA,NA,NA,NA,NA,NA,NA,false
hHTVVu8d,3mdwe879vkfdd3966pwqlqs1zxrb9a,3u088zljvo6pswhysmev4d0ktli0w0,hHTVVu8d,2020-0188,2020-06-04,07:43:48,08:20:24,NA,incomplete,61,filling,0,1,left,Green_Triangle_Grid_4.jpg,Red_Plus_Grid_1.jpg,Purple_Triangle_Chess_3.jpg,left,887.0549999992363,true,high,NA,NA,NA,NA,NA,NA,NA,false
hHTVVu8d,3mdwe879vkfdd3966pwqlqs1zxrb9a,3u088zljvo6pswhysmev4d0ktli0w0,hHTVVu8d,2020-0188,2020-06-04,07:43:48,08:20:24,NA,incomplete,62,filling,0,1,left,Green_Plus_Grid_3.jpg,Purple_Star_Grid_2.jpg,Red_Plus_Chess_1.jpg,left,1045.925000013085,true,high,NA,NA,NA,NA,NA,NA,NA,false
hHTVVu8d,3mdwe879vkfdd3966pwqlqs1zxrb9a,3u088zljvo6pswhysmev4d0ktli0w0,hHTVVu8d,2020-0188,2020-06-04,07:43:48,08:20:24,NA,incomplete,63,filling,0,1,left,Blue_Plus_Dots_4.jpg,Red_Star_Dots_2.jpg,Purple_Plus_Stripes_3.jpg,left,864.7900000214577,true,high,NA,NA,NA,NA,NA,NA,NA,false
hHTVVu8d,3mdwe879vkfdd3966pwqlqs1zxrb9a,3u088zljvo6pswhysmev4d0ktli0w0,hHTVVu8d,2020-0188,2020-06-04,07:43:48,08:20:24,NA,incomplete,64,filling,0,1,right,Blue_Circle_Grid_4.jpg,Green_Circle_Stripes_1.jpg,Red_Triangle_Grid_3.jpg,right,906.9599999929778,true,high,NA,NA,NA,NA,NA,NA,NA,false
hHTVVu8d,3mdwe879vkfdd3966pwqlqs1zxrb9a,3u088zljvo6pswhysmev4d0ktli0w0,hHTVVu8d,2020-0188,2020-06-04,07:43:48,08:20:24,NA,incomplete,65,filling,0,0,right,Blue_Star_Grid_4.jpg,Red_Star_Chess_3.jpg,Purple_Circle_Grid_2.jpg,right,880.524999985937,true,high,NA,NA,NA,NA,NA,NA,NA,false
hHTVVu8d,3mdwe879vkfdd3966pwqlqs1zxrb9a,3u088zljvo6pswhysmev4d0ktli0w0,hHTVVu8d,2020-0188,2020-06-04,07:43:48,08:20:24,NA,incomplete,66,filling,0,1,left,Red_Plus_Chess_2.jpg,Blue_Triangle_Chess_4.jpg,Purple_Plus_Grid_3.jpg,left,1035.6749999918975,true,high,NA,NA,NA,NA,NA,NA,NA,false
hHTVVu8d,3mdwe879vkfdd3966pwqlqs1zxrb9a,3u088zljvo6pswhysmev4d0ktli0w0,hHTVVu8d,2020-0188,2020-06-04,07:43:48,08:20:24,NA,incomplete,67,filling,0,1,right,Green_Star_Chess_4.jpg,Purple_Star_Dots_1.jpg,Red_Triangle_Chess_3.jpg,right,970.900000014808,true,high,NA,NA,NA,NA,NA,NA,NA,false
hHTVVu8d,3mdwe879vkfdd3966pwqlqs1zxrb9a,3u088zljvo6pswhysmev4d0ktli0w0,hHTVVu8d,2020-0188,2020-06-04,07:43:48,08:20:24,NA,incomplete,68,filling,0,1,left,Blue_Star_Chess_4.jpg,Green_Circle_Chess_3.jpg,Purple_Star_Dots_2.jpg,left,1022.2799999755807,true,high,NA,NA,NA,NA,NA,NA,NA,false
hHTVVu8d,3mdwe879vkfdd3966pwqlqs1zxrb9a,3u088zljvo6pswhysmev4d0ktli0w0,hHTVVu8d,2020-0188,2020-06-04,07:43:48,08:20:24,NA,incomplete,69,filling,0,0,right,Green_Star_Grid_1.jpg,Purple_Star_Chess_4.jpg,Red_Triangle_Grid_2.jpg,right,792.8700000047684,true,high,NA,NA,NA,NA,NA,NA,NA,false
hHTVVu8d,3mdwe879vkfdd3966pwqlqs1zxrb9a,3u088zljvo6pswhysmev4d0ktli0w0,hHTVVu8d,2020-0188,2020-06-04,07:43:48,08:20:24,NA,incomplete,70,shape,1,1,left,Green_Circle_Grid_4.jpg,Blue_Circle_Stripes_3.jpg,Red_Plus_Grid_2.jpg,right,882.6150000095367,false,high,NA,NA,NA,NA,NA,NA,NA,false
hHTVVu8d,3mdwe879vkfdd3966pwqlqs1zxrb9a,3u088zljvo6pswhysmev4d0ktli0w0,hHTVVu8d,2020-0188,2020-06-04,07:43:48,08:20:24,NA,incomplete,71,shape,1,1,right,Purple_Star_Stripes_3.jpg,Green_Circle_Stripes_4.jpg,Blue_Star_Chess_2.jpg,left,785.6099999917205,false,high,NA,NA,NA,NA,NA,NA,NA,false
hHTVVu8d,3mdwe879vkfdd3966pwqlqs1zxrb9a,3u088zljvo6pswhysmev4d0ktli0w0,hHTVVu8d,2020-0188,2020-06-04,07:43:48,08:20:24,NA,incomplete,72,shape,1,1,right,Purple_Plus_Grid_2.jpg,Green_Star_Grid_1.jpg,Red_Plus_Dots_3.jpg,left,961.2900000065565,false,high,NA,NA,NA,NA,NA,NA,NA,false
hHTVVu8d,3mdwe879vkfdd3966pwqlqs1zxrb9a,3u088zljvo6pswhysmev4d0ktli0w0,hHTVVu8d,2020-0188,2020-06-04,07:43:48,08:20:24,NA,incomplete,73,shape,1,0,right,Blue_Triangle_Grid_1.jpg,Purple_Plus_Grid_3.jpg,Red_Triangle_Stripes_4.jpg,left,1050.859999988461,false,high,NA,NA,NA,NA,NA,NA,NA,false
hHTVVu8d,3mdwe879vkfdd3966pwqlqs1zxrb9a,3u088zljvo6pswhysmev4d0ktli0w0,hHTVVu8d,2020-0188,2020-06-04,07:43:48,08:20:24,NA,incomplete,74,shape,1,0,right,Blue_Plus_Dots_3.jpg,Red_Star_Dots_1.jpg,Purple_Plus_Stripes_2.jpg,left,989.8899999971036,false,high,NA,NA,NA,NA,NA,NA,NA,false
hHTVVu8d,3mdwe879vkfdd3966pwqlqs1zxrb9a,3u088zljvo6pswhysmev4d0ktli0w0,hHTVVu8d,2020-0188,2020-06-04,07:43:48,08:20:24,NA,incomplete,75,shape,1,1,left,Red_Plus_Chess_4.jpg,Green_Plus_Grid_1.jpg,Blue_Triangle_Chess_2.jpg,right,854.7250000119675,false,high,NA,NA,NA,NA,NA,NA,NA,false
hHTVVu8d,3mdwe879vkfdd3966pwqlqs1zxrb9a,3u088zljvo6pswhysmev4d0ktli0w0,hHTVVu8d,2020-0188,2020-06-04,07:43:48,08:20:24,NA,incomplete,76,shape,1,1,right,Purple_Plus_Grid_1.jpg,Green_Circle_Grid_3.jpg,Blue_Plus_Chess_2.jpg,left,936.5099999995437,false,high,NA,NA,NA,NA,NA,NA,NA,false
hHTVVu8d,3mdwe879vkfdd3966pwqlqs1zxrb9a,3u088zljvo6pswhysmev4d0ktli0w0,hHTVVu8d,2020-0188,2020-06-04,07:43:48,08:20:24,NA,incomplete,77,shape,1,1,right,Green_Circle_Dots_2.jpg,Blue_Triangle_Dots_4.jpg,Red_Circle_Stripes_3.jpg,left,906.0699999972712,false,high,NA,NA,NA,NA,NA,NA,NA,false
hHTVVu8d,3mdwe879vkfdd3966pwqlqs1zxrb9a,3u088zljvo6pswhysmev4d0ktli0w0,hHTVVu8d,2020-0188,2020-06-04,07:43:48,08:20:24,NA,incomplete,78,shape,1,1,right,Green_Plus_Dots_2.jpg,Purple_Circle_Dots_1.jpg,Blue_Plus_Stripes_3.jpg,left,829.7850000089966,false,high,NA,NA,NA,NA,NA,NA,NA,false
hHTVVu8d,3mdwe879vkfdd3966pwqlqs1zxrb9a,3u088zljvo6pswhysmev4d0ktli0w0,hHTVVu8d,2020-0188,2020-06-04,07:43:48,08:20:24,NA,incomplete,79,shape,1,1,left,Green_Star_Stripes_2.jpg,Blue_Star_Dots_1.jpg,Red_Circle_Stripes_3.jpg,left,644.9300000094809,true,high,NA,NA,NA,NA,NA,NA,NA,false
hHTVVu8d,3mdwe879vkfdd3966pwqlqs1zxrb9a,3u088zljvo6pswhysmev4d0ktli0w0,hHTVVu8d,2020-0188,2020-06-04,07:43:48,08:20:24,NA,incomplete,80,filling,0,1,left,Purple_Triangle_Stripes_2.jpg,Red_Plus_Stripes_1.jpg,Green_Triangle_Dots_4.jpg,right,694.9949999980163,false,high,NA,NA,NA,NA,NA,NA,NA,false
hHTVVu8d,3mdwe879vkfdd3966pwqlqs1zxrb9a,3u088zljvo6pswhysmev4d0ktli0w0,hHTVVu8d,2020-0188,2020-06-04,07:43:48,08:20:24,NA,incomplete,81,filling,0,0,left,Red_Triangle_Stripes_2.jpg,Blue_Circle_Stripes_1.jpg,Purple_Triangle_Chess_3.jpg,right,674.7500000055879,false,high,NA,NA,NA,NA,NA,NA,NA,false
hHTVVu8d,3mdwe879vkfdd3966pwqlqs1zxrb9a,3u088zljvo6pswhysmev4d0ktli0w0,hHTVVu8d,2020-0188,2020-06-04,07:43:48,08:20:24,NA,incomplete,82,filling,0,1,right,Blue_Star_Dots_1.jpg,Purple_Star_Stripes_3.jpg,Red_Plus_Dots_4.jpg,left,653.760000015609,false,high,NA,NA,NA,NA,NA,NA,NA,false
hHTVVu8d,3mdwe879vkfdd3966pwqlqs1zxrb9a,3u088zljvo6pswhysmev4d0ktli0w0,hHTVVu8d,2020-0188,2020-06-04,07:43:48,08:20:24,NA,incomplete,83,filling,0,1,left,Green_Star_Stripes_1.jpg,Purple_Plus_Stripes_2.jpg,Blue_Star_Dots_4.jpg,right,691.9249999918975,false,high,NA,NA,NA,NA,NA,NA,NA,false
hHTVVu8d,3mdwe879vkfdd3966pwqlqs1zxrb9a,3u088zljvo6pswhysmev4d0ktli0w0,hHTVVu8d,2020-0188,2020-06-04,07:43:48,08:20:24,NA,incomplete,84,filling,0,1,left,Red_Plus_Dots_2.jpg,Blue_Star_Dots_3.jpg,Purple_Plus_Grid_1.jpg,right,821.2449999991804,false,high,NA,NA,NA,NA,NA,NA,NA,false
hHTVVu8d,3mdwe879vkfdd3966pwqlqs1zxrb9a,3u088zljvo6pswhysmev4d0ktli0w0,hHTVVu8d,2020-0188,2020-06-04,07:43:48,08:20:24,NA,incomplete,85,filling,0,1,right,Red_Circle_Dots_1.jpg,Green_Circle_Chess_2.jpg,Purple_Star_Dots_3.jpg,right,938.8699999835808,true,high,NA,NA,NA,NA,NA,NA,NA,false
hHTVVu8d,3mdwe879vkfdd3966pwqlqs1zxrb9a,3u088zljvo6pswhysmev4d0ktli0w0,hHTVVu8d,2020-0188,2020-06-04,07:43:48,08:20:24,NA,incomplete,86,filling,0,1,left,Red_Plus_Grid_3.jpg,Purple_Triangle_Grid_1.jpg,Blue_Plus_Dots_2.jpg,left,804.3049999978393,true,high,NA,NA,NA,NA,NA,NA,NA,false
hHTVVu8d,3mdwe879vkfdd3966pwqlqs1zxrb9a,3u088zljvo6pswhysmev4d0ktli0w0,hHTVVu8d,2020-0188,2020-06-04,07:43:48,08:20:24,NA,incomplete,87,filling,0,1,right,Purple_Circle_Grid_1.jpg,Red_Circle_Chess_2.jpg,Green_Star_Grid_3.jpg,right,885.5850000109058,true,high,NA,NA,NA,NA,NA,NA,NA,false
hHTVVu8d,3mdwe879vkfdd3966pwqlqs1zxrb9a,3u088zljvo6pswhysmev4d0ktli0w0,hHTVVu8d,2020-0188,2020-06-04,07:43:48,08:20:24,NA,incomplete,88,filling,0,1,left,Red_Star_Dots_1.jpg,Purple_Triangle_Dots_2.jpg,Blue_Star_Chess_3.jpg,left,831.5100000181701,true,high,NA,NA,NA,NA,NA,NA,NA,false
hHTVVu8d,3mdwe879vkfdd3966pwqlqs1zxrb9a,3u088zljvo6pswhysmev4d0ktli0w0,hHTVVu8d,2020-0188,2020-06-04,07:43:48,08:20:24,NA,incomplete,89,filling,0,1,right,Green_Circle_Dots_4.jpg,Red_Circle_Stripes_1.jpg,Blue_Triangle_Dots_2.jpg,right,840.794999996433,true,high,NA,NA,NA,NA,NA,NA,NA,false
hHTVVu8d,3mdwe879vkfdd3966pwqlqs1zxrb9a,3u088zljvo6pswhysmev4d0ktli0w0,hHTVVu8d,2020-0188,2020-06-04,07:43:48,08:20:24,NA,incomplete,90,shape,1,0,left,Purple_Plus_Stripes_4.jpg,Blue_Plus_Chess_2.jpg,Red_Star_Stripes_3.jpg,right,830.7999999960884,false,high,NA,NA,NA,NA,NA,NA,NA,false
hHTVVu8d,3mdwe879vkfdd3966pwqlqs1zxrb9a,3u088zljvo6pswhysmev4d0ktli0w0,hHTVVu8d,2020-0188,2020-06-04,07:43:48,08:20:24,NA,incomplete,91,shape,1,1,right,Blue_Star_Stripes_1.jpg,Purple_Triangle_Stripes_4.jpg,Red_Star_Dots_3.jpg,left,826.7350000096485,false,high,NA,NA,NA,NA,NA,NA,NA,false
hHTVVu8d,3mdwe879vkfdd3966pwqlqs1zxrb9a,3u088zljvo6pswhysmev4d0ktli0w0,hHTVVu8d,2020-0188,2020-06-04,07:43:48,08:20:24,NA,incomplete,92,shape,1,1,right,Red_Circle_Grid_3.jpg,Blue_Plus_Grid_2.jpg,Purple_Circle_Stripes_4.jpg,left,843.3200000145007,false,high,NA,NA,NA,NA,NA,NA,NA,false
hHTVVu8d,3mdwe879vkfdd3966pwqlqs1zxrb9a,3u088zljvo6pswhysmev4d0ktli0w0,hHTVVu8d,2020-0188,2020-06-04,07:43:48,08:20:24,NA,incomplete,93,shape,1,1,right,Blue_Star_Stripes_2.jpg,Purple_Triangle_Stripes_4.jpg,Red_Star_Dots_1.jpg,left,716.7550000012852,false,high,NA,NA,NA,NA,NA,NA,NA,false
hHTVVu8d,3mdwe879vkfdd3966pwqlqs1zxrb9a,3u088zljvo6pswhysmev4d0ktli0w0,hHTVVu8d,2020-0188,2020-06-04,07:43:48,08:20:24,NA,incomplete,94,shape,1,1,right,Red_Plus_Dots_2.jpg,Green_Triangle_Dots_1.jpg,Blue_Plus_Stripes_3.jpg,right,638.8699999952223,true,high,NA,NA,NA,NA,NA,NA,NA,false
hHTVVu8d,3mdwe879vkfdd3966pwqlqs1zxrb9a,3u088zljvo6pswhysmev4d0ktli0w0,hHTVVu8d,2020-0188,2020-06-04,07:43:48,08:20:24,NA,incomplete,95,shape,1,1,right,Red_Plus_Dots_3.jpg,Blue_Circle_Dots_4.jpg,Purple_Plus_Chess_1.jpg,right,590.555000002496,true,high,NA,NA,NA,NA,NA,NA,NA,false
hHTVVu8d,3mdwe879vkfdd3966pwqlqs1zxrb9a,3u088zljvo6pswhysmev4d0ktli0w0,hHTVVu8d,2020-0188,2020-06-04,07:43:48,08:20:24,NA,incomplete,96,shape,1,1,left,Green_Plus_Grid_2.jpg,Red_Plus_Stripes_3.jpg,Blue_Triangle_Grid_4.jpg,left,676.3949999876786,true,high,NA,NA,NA,NA,NA,NA,NA,false
hHTVVu8d,3mdwe879vkfdd3966pwqlqs1zxrb9a,3u088zljvo6pswhysmev4d0ktli0w0,hHTVVu8d,2020-0188,2020-06-04,07:43:48,08:20:24,NA,incomplete,97,shape,1,1,right,Green_Plus_Grid_3.jpg,Blue_Circle_Grid_4.jpg,Red_Plus_Dots_1.jpg,right,787.2150000184774,true,high,NA,NA,NA,NA,NA,NA,NA,false
hHTVVu8d,3mdwe879vkfdd3966pwqlqs1zxrb9a,3u088zljvo6pswhysmev4d0ktli0w0,hHTVVu8d,2020-0188,2020-06-04,07:43:48,08:20:24,NA,incomplete,98,shape,1,1,right,Purple_Plus_Dots_3.jpg,Green_Triangle_Dots_1.jpg,Blue_Plus_Grid_2.jpg,right,557.7899999916553,true,high,NA,NA,NA,NA,NA,NA,NA,false
hHTVVu8d,3mdwe879vkfdd3966pwqlqs1zxrb9a,3u088zljvo6pswhysmev4d0ktli0w0,hHTVVu8d,2020-0188,2020-06-04,07:43:48,08:20:24,NA,incomplete,99,shape,1,1,left,Purple_Triangle_Grid_4.jpg,Blue_Triangle_Dots_3.jpg,Red_Star_Grid_1.jpg,left,579.9300000071526,true,high,NA,NA,NA,NA,NA,NA,NA,false
hHTVVu8d,3mdwe879vkfdd3966pwqlqs1zxrb9a,3u088zljvo6pswhysmev4d0ktli0w0,hHTVVu8d,2020-0188,2020-06-04,07:43:48,08:20:24,NA,incomplete,100,filling,0,0,right,Purple_Star_Chess_3.jpg,Green_Star_Grid_4.jpg,Blue_Triangle_Chess_2.jpg,left,579.6549999795388,false,high,NA,NA,NA,NA,NA,NA,NA,false
hHTVVu8d,3mdwe879vkfdd3966pwqlqs1zxrb9a,3u088zljvo6pswhysmev4d0ktli0w0,hHTVVu8d,2020-0188,2020-06-04,07:43:48,08:20:24,NA,incomplete,101,filling,0,1,left,Purple_Triangle_Chess_3.jpg,Blue_Star_Chess_4.jpg,Green_Triangle_Dots_2.jpg,right,578.6950000037905,false,high,NA,NA,NA,NA,NA,NA,NA,false
hHTVVu8d,3mdwe879vkfdd3966pwqlqs1zxrb9a,3u088zljvo6pswhysmev4d0ktli0w0,hHTVVu8d,2020-0188,2020-06-04,07:43:48,08:20:24,NA,incomplete,102,filling,0,1,left,Red_Circle_Chess_3.jpg,Purple_Star_Chess_1.jpg,Blue_Circle_Grid_4.jpg,left,872.0099999918602,true,high,NA,NA,NA,NA,NA,NA,NA,false
hHTVVu8d,3mdwe879vkfdd3966pwqlqs1zxrb9a,3u088zljvo6pswhysmev4d0ktli0w0,hHTVVu8d,2020-0188,2020-06-04,07:43:48,08:20:24,NA,incomplete,103,filling,0,1,left,Blue_Triangle_Stripes_2.jpg,Purple_Star_Stripes_4.jpg,Green_Triangle_Grid_1.jpg,left,1025.339999992866,true,high,NA,NA,NA,NA,NA,NA,NA,false
hHTVVu8d,3mdwe879vkfdd3966pwqlqs1zxrb9a,3u088zljvo6pswhysmev4d0ktli0w0,hHTVVu8d,2020-0188,2020-06-04,07:43:48,08:20:24,NA,incomplete,104,filling,0,1,right,Green_Star_Stripes_2.jpg,Blue_Star_Grid_1.jpg,Purple_Triangle_Stripes_3.jpg,right,830.9700000099838,true,high,NA,NA,NA,NA,NA,NA,NA,false
hHTVVu8d,3mdwe879vkfdd3966pwqlqs1zxrb9a,3u088zljvo6pswhysmev4d0ktli0w0,hHTVVu8d,2020-0188,2020-06-04,07:43:48,08:20:24,NA,incomplete,105,filling,0,1,left,Green_Plus_Dots_3.jpg,Red_Star_Dots_2.jpg,Purple_Plus_Grid_4.jpg,left,831.6549999872223,true,high,NA,NA,NA,NA,NA,NA,NA,false
hHTVVu8d,3mdwe879vkfdd3966pwqlqs1zxrb9a,3u088zljvo6pswhysmev4d0ktli0w0,hHTVVu8d,2020-0188,2020-06-04,07:43:48,08:20:24,NA,incomplete,106,filling,0,1,right,Blue_Circle_Stripes_2.jpg,Red_Circle_Dots_1.jpg,Green_Plus_Stripes_4.jpg,right,689.4500000053085,true,high,NA,NA,NA,NA,NA,NA,NA,false
hHTVVu8d,3mdwe879vkfdd3966pwqlqs1zxrb9a,3u088zljvo6pswhysmev4d0ktli0w0,hHTVVu8d,2020-0188,2020-06-04,07:43:48,08:20:24,NA,incomplete,107,filling,0,1,left,Red_Triangle_Dots_2.jpg,Purple_Plus_Dots_4.jpg,Blue_Triangle_Grid_3.jpg,left,842.8899999998976,true,high,NA,NA,NA,NA,NA,NA,NA,false
hHTVVu8d,3mdwe879vkfdd3966pwqlqs1zxrb9a,3u088zljvo6pswhysmev4d0ktli0w0,hHTVVu8d,2020-0188,2020-06-04,07:43:48,08:20:24,NA,incomplete,108,filling,0,1,right,Red_Triangle_Chess_4.jpg,Blue_Triangle_Dots_3.jpg,Green_Star_Chess_2.jpg,right,729.445000004489,true,high,NA,NA,NA,NA,NA,NA,NA,false
hHTVVu8d,3mdwe879vkfdd3966pwqlqs1zxrb9a,3u088zljvo6pswhysmev4d0ktli0w0,hHTVVu8d,2020-0188,2020-06-04,07:43:48,08:20:24,NA,incomplete,109,filling,0,1,left,Green_Plus_Dots_1.jpg,Purple_Triangle_Dots_2.jpg,Blue_Plus_Stripes_3.jpg,left,883.2999999867752,true,high,NA,NA,NA,NA,NA,NA,NA,false
hHTVVu8d,3mdwe879vkfdd3966pwqlqs1zxrb9a,3u088zljvo6pswhysmev4d0ktli0w0,hHTVVu8d,2020-0188,2020-06-04,07:43:48,08:20:24,NA,incomplete,110,shape,1,1,left,Purple_Plus_Stripes_4.jpg,Green_Plus_Chess_2.jpg,Red_Star_Stripes_3.jpg,right,897.6400000101421,false,high,NA,NA,NA,NA,NA,NA,NA,false
hHTVVu8d,3mdwe879vkfdd3966pwqlqs1zxrb9a,3u088zljvo6pswhysmev4d0ktli0w0,hHTVVu8d,2020-0188,2020-06-04,07:43:48,08:20:24,NA,incomplete,111,shape,1,0,right,Blue_Triangle_Grid_2.jpg,Purple_Star_Grid_3.jpg,Red_Triangle_Stripes_1.jpg,left,882.7549999987241,false,high,NA,NA,NA,NA,NA,NA,NA,false
hHTVVu8d,3mdwe879vkfdd3966pwqlqs1zxrb9a,3u088zljvo6pswhysmev4d0ktli0w0,hHTVVu8d,2020-0188,2020-06-04,07:43:48,08:20:24,NA,incomplete,112,shape,1,1,left,Blue_Plus_Chess_2.jpg,Purple_Plus_Grid_4.jpg,Green_Circle_Chess_3.jpg,right,839.4799999950919,false,high,NA,NA,NA,NA,NA,NA,NA,false
hHTVVu8d,3mdwe879vkfdd3966pwqlqs1zxrb9a,3u088zljvo6pswhysmev4d0ktli0w0,hHTVVu8d,2020-0188,2020-06-04,07:43:48,08:20:24,NA,incomplete,113,shape,1,1,left,Green_Star_Stripes_1.jpg,Red_Star_Dots_4.jpg,Blue_Circle_Stripes_3.jpg,right,840.3049999906216,false,high,NA,NA,NA,NA,NA,NA,NA,false
hHTVVu8d,3mdwe879vkfdd3966pwqlqs1zxrb9a,3u088zljvo6pswhysmev4d0ktli0w0,hHTVVu8d,2020-0188,2020-06-04,07:43:48,08:20:24,NA,incomplete,114,shape,1,1,right,Green_Plus_Chess_4.jpg,Purple_Star_Chess_2.jpg,Red_Plus_Stripes_1.jpg,right,754.4099999940954,true,high,NA,NA,NA,NA,NA,NA,NA,false
hHTVVu8d,3mdwe879vkfdd3966pwqlqs1zxrb9a,3u088zljvo6pswhysmev4d0ktli0w0,hHTVVu8d,2020-0188,2020-06-04,07:43:48,08:20:24,NA,incomplete,115,shape,1,1,right,Purple_Triangle_Dots_3.jpg,Blue_Circle_Dots_1.jpg,Red_Triangle_Chess_2.jpg,right,664.3749999930151,true,high,NA,NA,NA,NA,NA,NA,NA,false
hHTVVu8d,3mdwe879vkfdd3966pwqlqs1zxrb9a,3u088zljvo6pswhysmev4d0ktli0w0,hHTVVu8d,2020-0188,2020-06-04,07:43:48,08:20:24,NA,incomplete,116,shape,1,1,right,Blue_Circle_Dots_4.jpg,Red_Plus_Dots_1.jpg,Purple_Circle_Chess_3.jpg,right,719.9850000033621,true,high,NA,NA,NA,NA,NA,NA,NA,false
hHTVVu8d,3mdwe879vkfdd3966pwqlqs1zxrb9a,3u088zljvo6pswhysmev4d0ktli0w0,hHTVVu8d,2020-0188,2020-06-04,07:43:48,08:20:24,NA,incomplete,117,shape,1,1,left,Blue_Triangle_Stripes_2.jpg,Purple_Triangle_Dots_3.jpg,Red_Plus_Stripes_4.jpg,left,673.624999995809,true,high,NA,NA,NA,NA,NA,NA,NA,false
hHTVVu8d,3mdwe879vkfdd3966pwqlqs1zxrb9a,3u088zljvo6pswhysmev4d0ktli0w0,hHTVVu8d,2020-0188,2020-06-04,07:43:48,08:20:24,NA,incomplete,118,shape,1,1,right,Purple_Star_Stripes_2.jpg,Green_Plus_Stripes_1.jpg,Red_Star_Dots_3.jpg,right,589.3250000081025,true,high,NA,NA,NA,NA,NA,NA,NA,false
hHTVVu8d,3mdwe879vkfdd3966pwqlqs1zxrb9a,3u088zljvo6pswhysmev4d0ktli0w0,hHTVVu8d,2020-0188,2020-06-04,07:43:48,08:20:24,NA,incomplete,119,shape,1,1,right,Red_Star_Grid_1.jpg,Green_Plus_Grid_2.jpg,Blue_Star_Dots_4.jpg,right,870.1049999799579,true,high,NA,NA,NA,NA,NA,NA,NA,false
hHTVVu8d,3mdwe879vkfdd3966pwqlqs1zxrb9a,3u088zljvo6pswhysmev4d0ktli0w0,hHTVVu8d,2020-0188,2020-06-04,07:43:48,08:20:24,NA,incomplete,120,race,2,1,right,A_F_02.jpg,C_F_15.jpg,A_M_05.jpg,NA,NA,NA,high,NA,NA,NA,NA,NA,NA,NA,false
hHTVVu8d,3mdwe879vkfdd3966pwqlqs1zxrb9a,3u088zljvo6pswhysmev4d0ktli0w0,hHTVVu8d,2020-0188,2020-06-04,07:43:48,08:20:24,NA,incomplete,121,race,2,0,left,A_F_02.jpg,A_M_06.jpg,C_F_11.jpg,left,1962.0749999885447,true,high,NA,NA,NA,NA,NA,NA,NA,false
hHTVVu8d,3mdwe879vkfdd3966pwqlqs1zxrb9a,3u088zljvo6pswhysmev4d0ktli0w0,hHTVVu8d,2020-0188,2020-06-04,07:43:48,08:20:24,NA,incomplete,122,race,2,1,left,A_M_11.jpg,A_F_09.jpg,C_M_12.jpg,right,971.9999999797437,false,high,NA,NA,NA,NA,NA,NA,NA,false
hHTVVu8d,3mdwe879vkfdd3966pwqlqs1zxrb9a,3u088zljvo6pswhysmev4d0ktli0w0,hHTVVu8d,2020-0188,2020-06-04,07:43:48,08:20:24,NA,incomplete,123,race,2,1,right,C_M_11.jpg,A_M_15.jpg,C_F_13.jpg,right,1403.2900000165682,true,high,NA,NA,NA,NA,NA,NA,NA,false
hHTVVu8d,3mdwe879vkfdd3966pwqlqs1zxrb9a,3u088zljvo6pswhysmev4d0ktli0w0,hHTVVu8d,2020-0188,2020-06-04,07:43:48,08:20:24,NA,incomplete,124,race,2,1,right,C_F_04.jpg,A_F_03.jpg,C_M_05.jpg,right,1172.9649999761023,true,high,NA,NA,NA,NA,NA,NA,NA,false
hHTVVu8d,3mdwe879vkfdd3966pwqlqs1zxrb9a,3u088zljvo6pswhysmev4d0ktli0w0,hHTVVu8d,2020-0188,2020-06-04,07:43:48,08:20:24,NA,incomplete,125,race,2,0,right,A_M_14.jpg,C_M_03.jpg,A_F_10.jpg,right,1283.4250000014435,true,high,NA,NA,NA,NA,NA,NA,NA,false
hHTVVu8d,3mdwe879vkfdd3966pwqlqs1zxrb9a,3u088zljvo6pswhysmev4d0ktli0w0,hHTVVu8d,2020-0188,2020-06-04,07:43:48,08:20:24,NA,incomplete,126,race,2,1,left,C_F_12.jpg,C_M_07.jpg,A_F_05.jpg,left,1210.8599999919534,true,high,NA,NA,NA,NA,NA,NA,NA,false
hHTVVu8d,3mdwe879vkfdd3966pwqlqs1zxrb9a,3u088zljvo6pswhysmev4d0ktli0w0,hHTVVu8d,2020-0188,2020-06-04,07:43:48,08:20:24,NA,incomplete,127,race,2,1,left,C_F_05.jpg,C_M_01.jpg,A_F_04.jpg,left,1321.700000000419,true,high,NA,NA,NA,NA,NA,NA,NA,false
hHTVVu8d,3mdwe879vkfdd3966pwqlqs1zxrb9a,3u088zljvo6pswhysmev4d0ktli0w0,hHTVVu8d,2020-0188,2020-06-04,07:43:48,08:20:24,NA,incomplete,128,race,2,1,right,A_F_10.jpg,C_F_07.jpg,A_M_13.jpg,right,979.460000002291,true,high,NA,NA,NA,NA,NA,NA,NA,false
hHTVVu8d,3mdwe879vkfdd3966pwqlqs1zxrb9a,3u088zljvo6pswhysmev4d0ktli0w0,hHTVVu8d,2020-0188,2020-06-04,07:43:48,08:20:24,NA,incomplete,129,race,2,1,right,A_M_09.jpg,C_M_14.jpg,A_F_10.jpg,right,1031.3099999912083,true,high,NA,NA,NA,NA,NA,NA,NA,false
hHTVVu8d,3mdwe879vkfdd3966pwqlqs1zxrb9a,3u088zljvo6pswhysmev4d0ktli0w0,hHTVVu8d,2020-0188,2020-06-04,07:43:48,08:20:24,NA,incomplete,130,race,2,1,left,C_F_10.jpg,C_M_12.jpg,A_F_05.jpg,left,1115.8050000085495,true,high,NA,NA,NA,NA,NA,NA,NA,false
hHTVVu8d,3mdwe879vkfdd3966pwqlqs1zxrb9a,3u088zljvo6pswhysmev4d0ktli0w0,hHTVVu8d,2020-0188,2020-06-04,07:43:48,08:20:24,NA,incomplete,131,race,2,0,right,A_F_05.jpg,C_F_04.jpg,A_M_14.jpg,right,998.745000018971,true,high,NA,NA,NA,NA,NA,NA,NA,false
hHTVVu8d,3mdwe879vkfdd3966pwqlqs1zxrb9a,3u088zljvo6pswhysmev4d0ktli0w0,hHTVVu8d,2020-0188,2020-06-04,07:43:48,08:20:24,NA,incomplete,132,race,2,1,right,C_F_16.jpg,A_F_12.jpg,C_M_05.jpg,right,1179.6449999965262,true,high,NA,NA,NA,NA,NA,NA,NA,false
hHTVVu8d,3mdwe879vkfdd3966pwqlqs1zxrb9a,3u088zljvo6pswhysmev4d0ktli0w0,hHTVVu8d,2020-0188,2020-06-04,07:43:48,08:20:24,NA,incomplete,133,race,2,0,right,A_F_03.jpg,C_F_11.jpg,A_M_12.jpg,right,1224.6649999869987,true,high,NA,NA,NA,NA,NA,NA,NA,false
hHTVVu8d,3mdwe879vkfdd3966pwqlqs1zxrb9a,3u088zljvo6pswhysmev4d0ktli0w0,hHTVVu8d,2020-0188,2020-06-04,07:43:48,08:20:24,NA,incomplete,134,race,2,1,right,C_F_15.jpg,A_F_13.jpg,C_M_02.jpg,right,966.6250000009313,true,high,NA,NA,NA,NA,NA,NA,NA,false
hHTVVu8d,3mdwe879vkfdd3966pwqlqs1zxrb9a,3u088zljvo6pswhysmev4d0ktli0w0,hHTVVu8d,2020-0188,2020-06-04,07:43:48,08:20:24,NA,incomplete,135,race,2,1,right,A_F_14.jpg,C_F_15.jpg,A_M_10.jpg,right,1070.5499999749009,true,high,NA,NA,NA,NA,NA,NA,NA,false
hHTVVu8d,3mdwe879vkfdd3966pwqlqs1zxrb9a,3u088zljvo6pswhysmev4d0ktli0w0,hHTVVu8d,2020-0188,2020-06-04,07:43:48,08:20:24,NA,incomplete,136,race,2,1,right,A_M_15.jpg,C_M_06.jpg,A_F_05.jpg,right,1146.7000000120606,true,high,NA,NA,NA,NA,NA,NA,NA,false
hHTVVu8d,3mdwe879vkfdd3966pwqlqs1zxrb9a,3u088zljvo6pswhysmev4d0ktli0w0,hHTVVu8d,2020-0188,2020-06-04,07:43:48,08:20:24,NA,incomplete,137,race,2,1,right,C_M_04.jpg,A_M_01.jpg,C_F_08.jpg,right,982.5799999816809,true,high,NA,NA,NA,NA,NA,NA,NA,false
hHTVVu8d,3mdwe879vkfdd3966pwqlqs1zxrb9a,3u088zljvo6pswhysmev4d0ktli0w0,hHTVVu8d,2020-0188,2020-06-04,07:43:48,08:20:24,NA,incomplete,138,race,2,0,left,C_F_05.jpg,C_M_15.jpg,A_F_09.jpg,left,947.279999993043,true,high,NA,NA,NA,NA,NA,NA,NA,false
hHTVVu8d,3mdwe879vkfdd3966pwqlqs1zxrb9a,3u088zljvo6pswhysmev4d0ktli0w0,hHTVVu8d,2020-0188,2020-06-04,07:43:48,08:20:24,NA,incomplete,139,race,2,1,right,A_M_15.jpg,C_M_04.jpg,A_F_07.jpg,right,966.1999999952968,true,high,NA,NA,NA,NA,NA,NA,NA,false
hHTVVu8d,3mdwe879vkfdd3966pwqlqs1zxrb9a,3u088zljvo6pswhysmev4d0ktli0w0,hHTVVu8d,2020-0188,2020-06-04,07:43:48,08:20:24,NA,incomplete,140,gender,3,0,left,C_M_10.jpg,A_M_07.jpg,C_F_06.jpg,right,1015.0000000139698,false,high,NA,NA,NA,NA,NA,NA,NA,false
hHTVVu8d,3mdwe879vkfdd3966pwqlqs1zxrb9a,3u088zljvo6pswhysmev4d0ktli0w0,hHTVVu8d,2020-0188,2020-06-04,07:43:48,08:20:24,NA,incomplete,141,gender,3,1,left,C_M_05.jpg,A_M_08.jpg,C_F_04.jpg,right,1227.359999989858,false,high,NA,NA,NA,NA,NA,NA,NA,false
hHTVVu8d,3mdwe879vkfdd3966pwqlqs1zxrb9a,3u088zljvo6pswhysmev4d0ktli0w0,hHTVVu8d,2020-0188,2020-06-04,07:43:48,08:20:24,NA,incomplete,142,gender,3,1,right,A_M_16.jpg,A_F_02.jpg,C_M_01.jpg,left,900.1949999947101,false,high,NA,NA,NA,NA,NA,NA,NA,false
hHTVVu8d,3mdwe879vkfdd3966pwqlqs1zxrb9a,3u088zljvo6pswhysmev4d0ktli0w0,hHTVVu8d,2020-0188,2020-06-04,07:43:48,08:20:24,NA,incomplete,143,gender,3,1,left,A_M_10.jpg,C_M_06.jpg,A_F_07.jpg,right,1361.2800000119023,false,high,NA,NA,NA,NA,NA,NA,NA,false
hHTVVu8d,3mdwe879vkfdd3966pwqlqs1zxrb9a,3u088zljvo6pswhysmev4d0ktli0w0,hHTVVu8d,2020-0188,2020-06-04,07:43:48,08:20:24,NA,incomplete,144,gender,3,0,left,C_M_03.jpg,A_M_10.jpg,C_F_08.jpg,left,736.5350000036415,true,high,NA,NA,NA,NA,NA,NA,NA,false
hHTVVu8d,3mdwe879vkfdd3966pwqlqs1zxrb9a,3u088zljvo6pswhysmev4d0ktli0w0,hHTVVu8d,2020-0188,2020-06-04,07:43:48,08:20:24,NA,incomplete,145,gender,3,1,left,C_F_14.jpg,A_F_07.jpg,C_M_16.jpg,right,1191.8349999759812,false,high,NA,NA,NA,NA,NA,NA,NA,false
hHTVVu8d,3mdwe879vkfdd3966pwqlqs1zxrb9a,3u088zljvo6pswhysmev4d0ktli0w0,hHTVVu8d,2020-0188,2020-06-04,07:43:48,08:20:24,NA,incomplete,146,gender,3,1,left,A_M_06.jpg,C_M_10.jpg,A_F_05.jpg,right,959.5799999951851,false,high,NA,NA,NA,NA,NA,NA,NA,false
hHTVVu8d,3mdwe879vkfdd3966pwqlqs1zxrb9a,3u088zljvo6pswhysmev4d0ktli0w0,hHTVVu8d,2020-0188,2020-06-04,07:43:48,08:20:24,NA,incomplete,147,gender,3,1,right,C_F_10.jpg,C_M_08.jpg,A_F_06.jpg,left,1115.8700000087265,false,high,NA,NA,NA,NA,NA,NA,NA,false
hHTVVu8d,3mdwe879vkfdd3966pwqlqs1zxrb9a,3u088zljvo6pswhysmev4d0ktli0w0,hHTVVu8d,2020-0188,2020-06-04,07:43:48,08:20:24,NA,incomplete,148,gender,3,1,left,A_F_07.jpg,C_F_03.jpg,A_M_16.jpg,left,1001.4800000062678,true,high,NA,NA,NA,NA,NA,NA,NA,false
hHTVVu8d,3mdwe879vkfdd3966pwqlqs1zxrb9a,3u088zljvo6pswhysmev4d0ktli0w0,hHTVVu8d,2020-0188,2020-06-04,07:43:48,08:20:24,NA,incomplete,149,gender,3,1,left,C_F_02.jpg,A_F_12.jpg,C_M_05.jpg,left,671.42500000773,true,high,NA,NA,NA,NA,NA,NA,NA,false
hHTVVu8d,3mdwe879vkfdd3966pwqlqs1zxrb9a,3u088zljvo6pswhysmev4d0ktli0w0,hHTVVu8d,2020-0188,2020-06-04,07:43:48,08:20:24,NA,incomplete,150,gender,3,0,left,A_F_15.jpg,C_F_13.jpg,A_M_04.jpg,left,697.0149999833666,true,high,NA,NA,NA,NA,NA,NA,NA,false
hHTVVu8d,3mdwe879vkfdd3966pwqlqs1zxrb9a,3u088zljvo6pswhysmev4d0ktli0w0,hHTVVu8d,2020-0188,2020-06-04,07:43:48,08:20:24,NA,incomplete,151,gender,3,1,right,A_F_01.jpg,A_M_11.jpg,C_F_07.jpg,right,732.4500000104308,true,high,NA,NA,NA,NA,NA,NA,NA,false
hHTVVu8d,3mdwe879vkfdd3966pwqlqs1zxrb9a,3u088zljvo6pswhysmev4d0ktli0w0,hHTVVu8d,2020-0188,2020-06-04,07:43:48,08:20:24,NA,incomplete,152,gender,3,1,left,C_F_16.jpg,A_F_02.jpg,C_M_14.jpg,left,726.2099999934435,true,high,NA,NA,NA,NA,NA,NA,NA,false
hHTVVu8d,3mdwe879vkfdd3966pwqlqs1zxrb9a,3u088zljvo6pswhysmev4d0ktli0w0,hHTVVu8d,2020-0188,2020-06-04,07:43:48,08:20:24,NA,incomplete,153,gender,3,1,left,A_F_15.jpg,C_F_13.jpg,A_M_03.jpg,left,670.9799999953248,true,high,NA,NA,NA,NA,NA,NA,NA,false
hHTVVu8d,3mdwe879vkfdd3966pwqlqs1zxrb9a,3u088zljvo6pswhysmev4d0ktli0w0,hHTVVu8d,2020-0188,2020-06-04,07:43:48,08:20:24,NA,incomplete,154,gender,3,0,left,A_F_15.jpg,C_F_03.jpg,A_M_16.jpg,left,667.9949999961536,true,high,NA,NA,NA,NA,NA,NA,NA,false
hHTVVu8d,3mdwe879vkfdd3966pwqlqs1zxrb9a,3u088zljvo6pswhysmev4d0ktli0w0,hHTVVu8d,2020-0188,2020-06-04,07:43:48,08:20:24,NA,incomplete,155,gender,3,1,left,A_F_09.jpg,C_F_07.jpg,A_M_13.jpg,right,956.239999999525,false,high,NA,NA,NA,NA,NA,NA,NA,false
hHTVVu8d,3mdwe879vkfdd3966pwqlqs1zxrb9a,3u088zljvo6pswhysmev4d0ktli0w0,hHTVVu8d,2020-0188,2020-06-04,07:43:48,08:20:24,NA,incomplete,156,gender,3,1,right,A_F_12.jpg,A_M_09.jpg,C_F_16.jpg,right,1214.8049999959767,true,high,NA,NA,NA,NA,NA,NA,NA,false
hHTVVu8d,3mdwe879vkfdd3966pwqlqs1zxrb9a,3u088zljvo6pswhysmev4d0ktli0w0,hHTVVu8d,2020-0188,2020-06-04,07:43:48,08:20:24,NA,incomplete,157,gender,3,1,right,A_F_10.jpg,A_M_15.jpg,C_F_12.jpg,right,695.2049999963492,true,high,NA,NA,NA,NA,NA,NA,NA,false
hHTVVu8d,3mdwe879vkfdd3966pwqlqs1zxrb9a,3u088zljvo6pswhysmev4d0ktli0w0,hHTVVu8d,2020-0188,2020-06-04,07:43:48,08:20:24,NA,incomplete,158,gender,3,0,right,A_M_08.jpg,A_F_15.jpg,C_M_14.jpg,right,1237.3099999967963,true,high,NA,NA,NA,NA,NA,NA,NA,false
hHTVVu8d,3mdwe879vkfdd3966pwqlqs1zxrb9a,3u088zljvo6pswhysmev4d0ktli0w0,hHTVVu8d,2020-0188,2020-06-04,07:43:48,08:20:24,NA,incomplete,159,gender,3,1,right,C_F_07.jpg,C_M_05.jpg,A_F_02.jpg,right,694.580000010319,true,high,NA,NA,NA,NA,NA,NA,NA,false
hHTVVu8d,3mdwe879vkfdd3966pwqlqs1zxrb9a,3u088zljvo6pswhysmev4d0ktli0w0,hHTVVu8d,2020-0188,2020-06-04,07:43:48,08:20:24,NA,incomplete,160,race,2,1,left,C_F_06.jpg,C_M_02.jpg,A_F_09.jpg,right,707.0099999837112,false,high,NA,NA,NA,NA,NA,NA,NA,false
hHTVVu8d,3mdwe879vkfdd3966pwqlqs1zxrb9a,3u088zljvo6pswhysmev4d0ktli0w0,hHTVVu8d,2020-0188,2020-06-04,07:43:48,08:20:24,NA,incomplete,161,race,2,1,right,C_F_08.jpg,A_F_04.jpg,C_M_11.jpg,left,611.2250000005588,false,high,NA,NA,NA,NA,NA,NA,NA,false
hHTVVu8d,3mdwe879vkfdd3966pwqlqs1zxrb9a,3u088zljvo6pswhysmev4d0ktli0w0,hHTVVu8d,2020-0188,2020-06-04,07:43:48,08:20:24,NA,incomplete,162,race,2,0,right,A_F_14.jpg,C_F_15.jpg,A_M_04.jpg,right,765.7149999868125,true,high,NA,NA,NA,NA,NA,NA,NA,false
hHTVVu8d,3mdwe879vkfdd3966pwqlqs1zxrb9a,3u088zljvo6pswhysmev4d0ktli0w0,hHTVVu8d,2020-0188,2020-06-04,07:43:48,08:20:24,NA,incomplete,163,race,2,1,left,C_F_03.jpg,C_M_13.jpg,A_F_07.jpg,right,853.9549999986775,false,high,NA,NA,NA,NA,NA,NA,NA,false
hHTVVu8d,3mdwe879vkfdd3966pwqlqs1zxrb9a,3u088zljvo6pswhysmev4d0ktli0w0,hHTVVu8d,2020-0188,2020-06-04,07:43:48,08:20:24,NA,incomplete,164,race,2,1,right,C_F_09.jpg,A_F_02.jpg,C_M_12.jpg,right,1016.1349999834783,true,high,NA,NA,NA,NA,NA,NA,NA,false
hHTVVu8d,3mdwe879vkfdd3966pwqlqs1zxrb9a,3u088zljvo6pswhysmev4d0ktli0w0,hHTVVu8d,2020-0188,2020-06-04,07:43:48,08:20:24,NA,incomplete,165,race,2,1,left,C_F_05.jpg,C_M_09.jpg,A_F_15.jpg,left,838.7949999887496,true,high,NA,NA,NA,NA,NA,NA,NA,false
hHTVVu8d,3mdwe879vkfdd3966pwqlqs1zxrb9a,3u088zljvo6pswhysmev4d0ktli0w0,hHTVVu8d,2020-0188,2020-06-04,07:43:48,08:20:24,NA,incomplete,166,race,2,1,left,C_F_16.jpg,C_M_05.jpg,A_F_04.jpg,left,1240.4050000186544,true,high,NA,NA,NA,NA,NA,NA,NA,false
hHTVVu8d,3mdwe879vkfdd3966pwqlqs1zxrb9a,3u088zljvo6pswhysmev4d0ktli0w0,hHTVVu8d,2020-0188,2020-06-04,07:43:48,08:20:24,NA,incomplete,167,race,2,1,left,C_F_16.jpg,C_M_04.jpg,A_F_03.jpg,left,1129.1199999977835,true,high,NA,NA,NA,NA,NA,NA,NA,false
hHTVVu8d,3mdwe879vkfdd3966pwqlqs1zxrb9a,3u088zljvo6pswhysmev4d0ktli0w0,hHTVVu8d,2020-0188,2020-06-04,07:43:48,08:20:24,NA,incomplete,168,race,2,0,left,C_F_15.jpg,C_M_09.jpg,A_F_12.jpg,left,1462.1350000088569,true,high,NA,NA,NA,NA,NA,NA,NA,false
hHTVVu8d,3mdwe879vkfdd3966pwqlqs1zxrb9a,3u088zljvo6pswhysmev4d0ktli0w0,hHTVVu8d,2020-0188,2020-06-04,07:43:48,08:20:24,NA,incomplete,169,race,2,1,right,C_M_09.jpg,A_M_11.jpg,C_F_06.jpg,left,785.3500000201166,false,high,NA,NA,NA,NA,NA,NA,NA,false
hHTVVu8d,3mdwe879vkfdd3966pwqlqs1zxrb9a,3u088zljvo6pswhysmev4d0ktli0w0,hHTVVu8d,2020-0188,2020-06-04,07:43:48,08:20:24,NA,incomplete,170,race,2,1,left,C_F_03.jpg,C_M_11.jpg,A_F_02.jpg,left,1246.8649999937043,true,high,NA,NA,NA,NA,NA,NA,NA,false
hHTVVu8d,3mdwe879vkfdd3966pwqlqs1zxrb9a,3u088zljvo6pswhysmev4d0ktli0w0,hHTVVu8d,2020-0188,2020-06-04,07:43:48,08:20:24,NA,incomplete,171,race,2,1,right,A_F_06.jpg,C_F_11.jpg,A_M_03.jpg,right,909.9299999943469,true,high,NA,NA,NA,NA,NA,NA,NA,false
hHTVVu8d,3mdwe879vkfdd3966pwqlqs1zxrb9a,3u088zljvo6pswhysmev4d0ktli0w0,hHTVVu8d,2020-0188,2020-06-04,07:43:48,08:20:24,NA,incomplete,172,race,2,1,right,A_F_05.jpg,C_F_01.jpg,A_M_16.jpg,right,900.2000000036787,true,high,NA,NA,NA,NA,NA,NA,NA,false
hHTVVu8d,3mdwe879vkfdd3966pwqlqs1zxrb9a,3u088zljvo6pswhysmev4d0ktli0w0,hHTVVu8d,2020-0188,2020-06-04,07:43:48,08:20:24,NA,incomplete,173,race,2,1,left,C_F_09.jpg,C_M_03.jpg,A_F_01.jpg,right,1021.4649999979883,false,high,NA,NA,NA,NA,NA,NA,NA,false
hHTVVu8d,3mdwe879vkfdd3966pwqlqs1zxrb9a,3u088zljvo6pswhysmev4d0ktli0w0,hHTVVu8d,2020-0188,2020-06-04,07:43:48,08:20:24,NA,incomplete,174,race,2,1,left,A_F_08.jpg,A_M_06.jpg,C_F_11.jpg,left,950.2849999989849,true,high,NA,NA,NA,NA,NA,NA,NA,false
hHTVVu8d,3mdwe879vkfdd3966pwqlqs1zxrb9a,3u088zljvo6pswhysmev4d0ktli0w0,hHTVVu8d,2020-0188,2020-06-04,07:43:48,08:20:24,NA,incomplete,175,race,2,0,left,A_M_11.jpg,A_F_07.jpg,C_M_13.jpg,left,899.4149999925867,true,high,NA,NA,NA,NA,NA,NA,NA,false
hHTVVu8d,3mdwe879vkfdd3966pwqlqs1zxrb9a,3u088zljvo6pswhysmev4d0ktli0w0,hHTVVu8d,2020-0188,2020-06-04,07:43:48,08:20:24,NA,incomplete,176,race,2,1,right,A_F_14.jpg,C_F_03.jpg,A_M_12.jpg,right,925.7050000014715,true,high,NA,NA,NA,NA,NA,NA,NA,false
hHTVVu8d,3mdwe879vkfdd3966pwqlqs1zxrb9a,3u088zljvo6pswhysmev4d0ktli0w0,hHTVVu8d,2020-0188,2020-06-04,07:43:48,08:20:24,NA,incomplete,177,race,2,1,left,A_F_01.jpg,A_M_16.jpg,C_F_02.jpg,left,905.8249999943655,true,high,NA,NA,NA,NA,NA,NA,NA,false
hHTVVu8d,3mdwe879vkfdd3966pwqlqs1zxrb9a,3u088zljvo6pswhysmev4d0ktli0w0,hHTVVu8d,2020-0188,2020-06-04,07:43:48,08:20:24,NA,incomplete,178,race,2,1,right,C_M_14.jpg,A_M_01.jpg,C_F_16.jpg,right,895.8600000187289,true,high,NA,NA,NA,NA,NA,NA,NA,false
hHTVVu8d,3mdwe879vkfdd3966pwqlqs1zxrb9a,3u088zljvo6pswhysmev4d0ktli0w0,hHTVVu8d,2020-0188,2020-06-04,07:43:48,08:20:24,NA,incomplete,179,race,2,0,left,C_F_12.jpg,C_M_05.jpg,A_F_16.jpg,left,1249.7949999815319,true,high,NA,NA,NA,NA,NA,NA,NA,false
hHTVVu8d,3mdwe879vkfdd3966pwqlqs1zxrb9a,3u088zljvo6pswhysmev4d0ktli0w0,hHTVVu8d,2020-0188,2020-06-04,07:43:48,08:20:24,NA,incomplete,180,gender,3,1,left,A_M_14.jpg,C_M_10.jpg,A_F_05.jpg,right,845.9549999970477,false,high,NA,NA,NA,NA,NA,NA,NA,false
hHTVVu8d,3mdwe879vkfdd3966pwqlqs1zxrb9a,3u088zljvo6pswhysmev4d0ktli0w0,hHTVVu8d,2020-0188,2020-06-04,07:43:48,08:20:24,NA,incomplete,181,gender,3,1,right,A_M_06.jpg,A_F_13.jpg,C_M_08.jpg,left,1306.589999992866,false,high,NA,NA,NA,NA,NA,NA,NA,false
hHTVVu8d,3mdwe879vkfdd3966pwqlqs1zxrb9a,3u088zljvo6pswhysmev4d0ktli0w0,hHTVVu8d,2020-0188,2020-06-04,07:43:48,08:20:24,NA,incomplete,182,gender,3,1,left,A_F_15.jpg,C_F_16.jpg,A_M_01.jpg,left,947.7849999966566,true,high,NA,NA,NA,NA,NA,NA,NA,false
hHTVVu8d,3mdwe879vkfdd3966pwqlqs1zxrb9a,3u088zljvo6pswhysmev4d0ktli0w0,hHTVVu8d,2020-0188,2020-06-04,07:43:48,08:20:24,NA,incomplete,183,gender,3,0,right,A_M_08.jpg,A_F_07.jpg,C_M_05.jpg,right,1351.1799999978393,true,high,NA,NA,NA,NA,NA,NA,NA,false
hHTVVu8d,3mdwe879vkfdd3966pwqlqs1zxrb9a,3u088zljvo6pswhysmev4d0ktli0w0,hHTVVu8d,2020-0188,2020-06-04,07:43:48,08:20:24,NA,incomplete,184,gender,3,1,left,A_M_08.jpg,C_M_01.jpg,A_F_07.jpg,left,953.6249999946449,true,high,NA,NA,NA,NA,NA,NA,NA,false
hHTVVu8d,3mdwe879vkfdd3966pwqlqs1zxrb9a,3u088zljvo6pswhysmev4d0ktli0w0,hHTVVu8d,2020-0188,2020-06-04,07:43:48,08:20:24,NA,incomplete,185,gender,3,1,left,A_M_01.jpg,C_M_06.jpg,A_F_07.jpg,left,731.6550000105053,true,high,NA,NA,NA,NA,NA,NA,NA,false
hHTVVu8d,3mdwe879vkfdd3966pwqlqs1zxrb9a,3u088zljvo6pswhysmev4d0ktli0w0,hHTVVu8d,2020-0188,2020-06-04,07:43:48,08:20:24,NA,incomplete,186,gender,3,1,right,C_M_11.jpg,C_F_05.jpg,A_M_08.jpg,right,655.7649999740534,true,high,NA,NA,NA,NA,NA,NA,NA,false
hHTVVu8d,3mdwe879vkfdd3966pwqlqs1zxrb9a,3u088zljvo6pswhysmev4d0ktli0w0,hHTVVu8d,2020-0188,2020-06-04,07:43:48,08:20:24,NA,incomplete,187,gender,3,1,right,C_F_02.jpg,C_M_07.jpg,A_F_15.jpg,right,675.6699999968987,true,high,NA,NA,NA,NA,NA,NA,NA,false
hHTVVu8d,3mdwe879vkfdd3966pwqlqs1zxrb9a,3u088zljvo6pswhysmev4d0ktli0w0,hHTVVu8d,2020-0188,2020-06-04,07:43:48,08:20:24,NA,incomplete,188,gender,3,1,left,C_M_08.jpg,A_M_03.jpg,C_F_02.jpg,left,665.8600000082515,true,high,NA,NA,NA,NA,NA,NA,NA,false
hHTVVu8d,3mdwe879vkfdd3966pwqlqs1zxrb9a,3u088zljvo6pswhysmev4d0ktli0w0,hHTVVu8d,2020-0188,2020-06-04,07:43:48,08:20:24,NA,incomplete,189,gender,3,0,left,A_F_03.jpg,C_F_12.jpg,A_M_02.jpg,left,672.1900000120513,true,high,NA,NA,NA,NA,NA,NA,NA,false
hHTVVu8d,3mdwe879vkfdd3966pwqlqs1zxrb9a,3u088zljvo6pswhysmev4d0ktli0w0,hHTVVu8d,2020-0188,2020-06-04,07:43:48,08:20:24,NA,incomplete,190,gender,3,1,left,C_F_07.jpg,A_F_06.jpg,C_M_01.jpg,left,1327.545000007376,true,high,NA,NA,NA,NA,NA,NA,NA,false
hHTVVu8d,3mdwe879vkfdd3966pwqlqs1zxrb9a,3u088zljvo6pswhysmev4d0ktli0w0,hHTVVu8d,2020-0188,2020-06-04,07:43:48,08:20:24,NA,incomplete,191,gender,3,1,left,A_F_04.jpg,C_F_06.jpg,A_M_07.jpg,left,680.4850000189617,true,high,NA,NA,NA,NA,NA,NA,NA,false
hHTVVu8d,3mdwe879vkfdd3966pwqlqs1zxrb9a,3u088zljvo6pswhysmev4d0ktli0w0,hHTVVu8d,2020-0188,2020-06-04,07:43:48,08:20:24,NA,incomplete,192,gender,3,1,left,A_M_06.jpg,C_M_05.jpg,A_F_09.jpg,left,1024.7800000070129,true,high,NA,NA,NA,NA,NA,NA,NA,false
hHTVVu8d,3mdwe879vkfdd3966pwqlqs1zxrb9a,3u088zljvo6pswhysmev4d0ktli0w0,hHTVVu8d,2020-0188,2020-06-04,07:43:48,08:20:24,NA,incomplete,193,gender,3,1,left,A_M_08.jpg,C_M_06.jpg,A_F_02.jpg,left,718.3099999965634,true,high,NA,NA,NA,NA,NA,NA,NA,false
hHTVVu8d,3mdwe879vkfdd3966pwqlqs1zxrb9a,3u088zljvo6pswhysmev4d0ktli0w0,hHTVVu8d,2020-0188,2020-06-04,07:43:48,08:20:24,NA,incomplete,194,gender,3,0,right,A_M_14.jpg,A_F_03.jpg,C_M_08.jpg,right,677.5150000175927,true,high,NA,NA,NA,NA,NA,NA,NA,false
hHTVVu8d,3mdwe879vkfdd3966pwqlqs1zxrb9a,3u088zljvo6pswhysmev4d0ktli0w0,hHTVVu8d,2020-0188,2020-06-04,07:43:48,08:20:24,NA,incomplete,195,gender,3,1,right,C_F_11.jpg,C_M_07.jpg,A_F_05.jpg,right,578.7450000061654,true,high,NA,NA,NA,NA,NA,NA,NA,false
hHTVVu8d,3mdwe879vkfdd3966pwqlqs1zxrb9a,3u088zljvo6pswhysmev4d0ktli0w0,hHTVVu8d,2020-0188,2020-06-04,07:43:48,08:20:24,NA,incomplete,196,gender,3,1,left,C_M_10.jpg,A_M_06.jpg,C_F_12.jpg,left,890.2250000101048,true,high,NA,NA,NA,NA,NA,NA,NA,false
hHTVVu8d,3mdwe879vkfdd3966pwqlqs1zxrb9a,3u088zljvo6pswhysmev4d0ktli0w0,hHTVVu8d,2020-0188,2020-06-04,07:43:48,08:20:24,NA,incomplete,197,gender,3,1,right,A_M_06.jpg,A_F_13.jpg,C_M_07.jpg,right,676.7650000110734,true,high,NA,NA,NA,NA,NA,NA,NA,false
hHTVVu8d,3mdwe879vkfdd3966pwqlqs1zxrb9a,3u088zljvo6pswhysmev4d0ktli0w0,hHTVVu8d,2020-0188,2020-06-04,07:43:48,08:20:24,NA,incomplete,198,gender,3,1,left,C_M_05.jpg,A_M_04.jpg,C_F_01.jpg,left,568.6700000078417,true,high,NA,NA,NA,NA,NA,NA,NA,false
hHTVVu8d,3mdwe879vkfdd3966pwqlqs1zxrb9a,3u088zljvo6pswhysmev4d0ktli0w0,hHTVVu8d,2020-0188,2020-06-04,07:43:48,08:20:24,NA,incomplete,199,gender,3,1,left,C_F_09.jpg,A_F_06.jpg,C_M_05.jpg,left,950.2400000055786,true,high,NA,NA,NA,NA,NA,NA,NA,false
hHTVVu8d,3mdwe879vkfdd3966pwqlqs1zxrb9a,3u088zljvo6pswhysmev4d0ktli0w0,hHTVVu8d,2020-0188,2020-06-04,07:43:48,08:20:24,NA,incomplete,200,race,2,0,left,C_M_06.jpg,C_F_10.jpg,A_M_08.jpg,right,779.7600000048988,false,high,NA,NA,NA,NA,NA,NA,NA,false
hHTVVu8d,3mdwe879vkfdd3966pwqlqs1zxrb9a,3u088zljvo6pswhysmev4d0ktli0w0,hHTVVu8d,2020-0188,2020-06-04,07:43:48,08:20:24,NA,incomplete,201,race,2,1,left,C_M_10.jpg,C_F_11.jpg,A_M_07.jpg,right,701.5149999933783,false,high,NA,NA,NA,NA,NA,NA,NA,false
hHTVVu8d,3mdwe879vkfdd3966pwqlqs1zxrb9a,3u088zljvo6pswhysmev4d0ktli0w0,hHTVVu8d,2020-0188,2020-06-04,07:43:48,08:20:24,NA,incomplete,202,race,2,1,right,C_M_11.jpg,A_M_09.jpg,C_F_16.jpg,left,565.9349999914411,false,high,NA,NA,NA,NA,NA,NA,NA,false
hHTVVu8d,3mdwe879vkfdd3966pwqlqs1zxrb9a,3u088zljvo6pswhysmev4d0ktli0w0,hHTVVu8d,2020-0188,2020-06-04,07:43:48,08:20:24,NA,incomplete,203,race,2,1,right,C_M_09.jpg,A_M_06.jpg,C_F_04.jpg,left,573.5400000121444,false,high,NA,NA,NA,NA,NA,NA,NA,false
hHTVVu8d,3mdwe879vkfdd3966pwqlqs1zxrb9a,3u088zljvo6pswhysmev4d0ktli0w0,hHTVVu8d,2020-0188,2020-06-04,07:43:48,08:20:24,NA,incomplete,204,race,2,1,left,A_M_04.jpg,A_F_15.jpg,C_M_01.jpg,right,565.0150000001304,false,high,NA,NA,NA,NA,NA,NA,NA,false
hHTVVu8d,3mdwe879vkfdd3966pwqlqs1zxrb9a,3u088zljvo6pswhysmev4d0ktli0w0,hHTVVu8d,2020-0188,2020-06-04,07:43:48,08:20:24,NA,incomplete,205,race,2,1,left,A_F_13.jpg,A_M_06.jpg,C_F_09.jpg,left,1026.800000021467,true,high,NA,NA,NA,NA,NA,NA,NA,false
hHTVVu8d,3mdwe879vkfdd3966pwqlqs1zxrb9a,3u088zljvo6pswhysmev4d0ktli0w0,hHTVVu8d,2020-0188,2020-06-04,07:43:48,08:20:24,NA,incomplete,206,race,2,1,right,C_M_10.jpg,A_M_15.jpg,C_F_01.jpg,right,1137.3100000200793,true,high,NA,NA,NA,NA,NA,NA,NA,false
hHTVVu8d,3mdwe879vkfdd3966pwqlqs1zxrb9a,3u088zljvo6pswhysmev4d0ktli0w0,hHTVVu8d,2020-0188,2020-06-04,07:43:48,08:20:24,NA,incomplete,207,race,2,1,left,A_F_05.jpg,A_M_10.jpg,C_F_08.jpg,left,935.3549999941606,true,high,NA,NA,NA,NA,NA,NA,NA,false
hHTVVu8d,3mdwe879vkfdd3966pwqlqs1zxrb9a,3u088zljvo6pswhysmev4d0ktli0w0,hHTVVu8d,2020-0188,2020-06-04,07:43:48,08:20:24,NA,incomplete,208,race,2,1,right,A_F_11.jpg,C_F_05.jpg,A_M_04.jpg,right,1338.9449999958742,true,high,NA,NA,NA,NA,NA,NA,NA,false
hHTVVu8d,3mdwe879vkfdd3966pwqlqs1zxrb9a,3u088zljvo6pswhysmev4d0ktli0w0,hHTVVu8d,2020-0188,2020-06-04,07:43:48,08:20:24,NA,incomplete,209,race,2,0,right,C_F_03.jpg,A_F_13.jpg,C_M_12.jpg,right,917.0849999936763,true,high,NA,NA,NA,NA,NA,NA,NA,false
hHTVVu8d,3mdwe879vkfdd3966pwqlqs1zxrb9a,3u088zljvo6pswhysmev4d0ktli0w0,hHTVVu8d,2020-0188,2020-06-04,07:43:48,08:20:24,NA,incomplete,210,race,2,1,right,A_M_01.jpg,C_M_05.jpg,A_F_16.jpg,right,976.9849999865983,true,high,NA,NA,NA,NA,NA,NA,NA,false
hHTVVu8d,3mdwe879vkfdd3966pwqlqs1zxrb9a,3u088zljvo6pswhysmev4d0ktli0w0,hHTVVu8d,2020-0188,2020-06-04,07:43:48,08:20:24,NA,incomplete,211,race,2,1,left,C_M_16.jpg,C_F_15.jpg,A_M_02.jpg,left,823.2699999934994,true,high,NA,NA,NA,NA,NA,NA,NA,false
hHTVVu8d,3mdwe879vkfdd3966pwqlqs1zxrb9a,3u088zljvo6pswhysmev4d0ktli0w0,hHTVVu8d,2020-0188,2020-06-04,07:43:48,08:20:24,NA,incomplete,212,race,2,1,left,C_M_14.jpg,C_F_15.jpg,A_M_11.jpg,left,1051.9700000004377,true,high,NA,NA,NA,NA,NA,NA,NA,false
hHTVVu8d,3mdwe879vkfdd3966pwqlqs1zxrb9a,3u088zljvo6pswhysmev4d0ktli0w0,hHTVVu8d,2020-0188,2020-06-04,07:43:48,08:20:24,NA,incomplete,213,race,2,1,left,C_M_03.jpg,C_F_05.jpg,A_M_10.jpg,left,1006.1700000078417,true,high,NA,NA,NA,NA,NA,NA,NA,false
hHTVVu8d,3mdwe879vkfdd3966pwqlqs1zxrb9a,3u088zljvo6pswhysmev4d0ktli0w0,hHTVVu8d,2020-0188,2020-06-04,07:43:48,08:20:24,NA,incomplete,214,race,2,1,left,C_F_13.jpg,C_M_01.jpg,A_F_14.jpg,left,1164.2350000038277,true,high,NA,NA,NA,NA,NA,NA,NA,false
hHTVVu8d,3mdwe879vkfdd3966pwqlqs1zxrb9a,3u088zljvo6pswhysmev4d0ktli0w0,hHTVVu8d,2020-0188,2020-06-04,07:43:48,08:20:24,NA,incomplete,215,race,2,1,right,A_F_09.jpg,C_F_08.jpg,A_M_01.jpg,right,1029.9999999988358,true,high,NA,NA,NA,NA,NA,NA,NA,false
hHTVVu8d,3mdwe879vkfdd3966pwqlqs1zxrb9a,3u088zljvo6pswhysmev4d0ktli0w0,hHTVVu8d,2020-0188,2020-06-04,07:43:48,08:20:24,NA,incomplete,216,race,2,1,left,A_F_09.jpg,A_M_16.jpg,C_F_08.jpg,left,935.7050000107847,true,high,NA,NA,NA,NA,NA,NA,NA,false
hHTVVu8d,3mdwe879vkfdd3966pwqlqs1zxrb9a,3u088zljvo6pswhysmev4d0ktli0w0,hHTVVu8d,2020-0188,2020-06-04,07:43:48,08:20:24,NA,incomplete,217,race,2,0,right,C_M_10.jpg,A_M_04.jpg,C_F_02.jpg,right,955.7349999959115,true,high,NA,NA,NA,NA,NA,NA,NA,false
hHTVVu8d,3mdwe879vkfdd3966pwqlqs1zxrb9a,3u088zljvo6pswhysmev4d0ktli0w0,hHTVVu8d,2020-0188,2020-06-04,07:43:48,08:20:24,NA,incomplete,218,race,2,1,right,C_F_02.jpg,A_F_07.jpg,C_M_14.jpg,right,1078.4900000144262,true,high,NA,NA,NA,NA,NA,NA,NA,false
hHTVVu8d,3mdwe879vkfdd3966pwqlqs1zxrb9a,3u088zljvo6pswhysmev4d0ktli0w0,hHTVVu8d,2020-0188,2020-06-04,07:43:48,08:20:24,NA,incomplete,219,race,2,1,right,C_F_16.jpg,A_F_08.jpg,C_M_06.jpg,right,1030.2799999772105,true,high,NA,NA,NA,NA,NA,NA,NA,false
hHTVVu8d,3mdwe879vkfdd3966pwqlqs1zxrb9a,3u088zljvo6pswhysmev4d0ktli0w0,hHTVVu8d,2020-0188,2020-06-04,07:43:48,08:20:24,NA,incomplete,220,gender,3,1,right,C_M_14.jpg,C_F_09.jpg,A_M_15.jpg,left,929.755000019446,false,high,NA,NA,NA,NA,NA,NA,NA,false
hHTVVu8d,3mdwe879vkfdd3966pwqlqs1zxrb9a,3u088zljvo6pswhysmev4d0ktli0w0,hHTVVu8d,2020-0188,2020-06-04,07:43:48,08:20:24,NA,incomplete,221,gender,3,1,right,A_F_01.jpg,A_M_03.jpg,C_F_11.jpg,left,1288.8049999894574,false,high,NA,NA,NA,NA,NA,NA,NA,false
hHTVVu8d,3mdwe879vkfdd3966pwqlqs1zxrb9a,3u088zljvo6pswhysmev4d0ktli0w0,hHTVVu8d,2020-0188,2020-06-04,07:43:48,08:20:24,NA,incomplete,222,gender,3,1,left,C_M_03.jpg,A_M_08.jpg,C_F_09.jpg,left,1019.7299999999814,true,high,NA,NA,NA,NA,NA,NA,NA,false
hHTVVu8d,3mdwe879vkfdd3966pwqlqs1zxrb9a,3u088zljvo6pswhysmev4d0ktli0w0,hHTVVu8d,2020-0188,2020-06-04,07:43:48,08:20:24,NA,incomplete,223,gender,3,1,left,A_F_11.jpg,C_F_01.jpg,A_M_08.jpg,left,1235.2349999998696,true,high,NA,NA,NA,NA,NA,NA,NA,false
hHTVVu8d,3mdwe879vkfdd3966pwqlqs1zxrb9a,3u088zljvo6pswhysmev4d0ktli0w0,hHTVVu8d,2020-0188,2020-06-04,07:43:48,08:20:24,NA,incomplete,224,gender,3,1,left,A_F_08.jpg,C_F_04.jpg,A_M_16.jpg,left,785.3099999777041,true,high,NA,NA,NA,NA,NA,NA,NA,false
hHTVVu8d,3mdwe879vkfdd3966pwqlqs1zxrb9a,3u088zljvo6pswhysmev4d0ktli0w0,hHTVVu8d,2020-0188,2020-06-04,07:43:48,08:20:24,NA,incomplete,225,gender,3,1,left,C_F_01.jpg,A_F_08.jpg,C_M_12.jpg,left,808.4749999977648,true,high,NA,NA,NA,NA,NA,NA,NA,false
hHTVVu8d,3mdwe879vkfdd3966pwqlqs1zxrb9a,3u088zljvo6pswhysmev4d0ktli0w0,hHTVVu8d,2020-0188,2020-06-04,07:43:48,08:20:24,NA,incomplete,226,gender,3,0,right,A_F_01.jpg,A_M_12.jpg,C_F_02.jpg,right,686.5950000067241,true,high,NA,NA,NA,NA,NA,NA,NA,false
hHTVVu8d,3mdwe879vkfdd3966pwqlqs1zxrb9a,3u088zljvo6pswhysmev4d0ktli0w0,hHTVVu8d,2020-0188,2020-06-04,07:43:48,08:20:24,NA,incomplete,227,gender,3,1,left,C_M_13.jpg,A_M_14.jpg,C_F_10.jpg,left,993.3650000020862,true,high,NA,NA,NA,NA,NA,NA,NA,false
hHTVVu8d,3mdwe879vkfdd3966pwqlqs1zxrb9a,3u088zljvo6pswhysmev4d0ktli0w0,hHTVVu8d,2020-0188,2020-06-04,07:43:48,08:20:24,NA,incomplete,228,gender,3,1,right,A_M_04.jpg,A_F_05.jpg,C_M_10.jpg,right,986.6299999994226,true,high,NA,NA,NA,NA,NA,NA,NA,false
hHTVVu8d,3mdwe879vkfdd3966pwqlqs1zxrb9a,3u088zljvo6pswhysmev4d0ktli0w0,hHTVVu8d,2020-0188,2020-06-04,07:43:48,08:20:24,NA,incomplete,229,gender,3,1,left,A_F_08.jpg,C_F_12.jpg,A_M_16.jpg,left,922.0250000068918,true,high,NA,NA,NA,NA,NA,NA,NA,false
hHTVVu8d,3mdwe879vkfdd3966pwqlqs1zxrb9a,3u088zljvo6pswhysmev4d0ktli0w0,hHTVVu8d,2020-0188,2020-06-04,07:43:48,08:20:24,NA,incomplete,230,gender,3,1,right,A_F_02.jpg,A_M_05.jpg,C_F_08.jpg,right,716.5600000009872,true,high,NA,NA,NA,NA,NA,NA,NA,false
hHTVVu8d,3mdwe879vkfdd3966pwqlqs1zxrb9a,3u088zljvo6pswhysmev4d0ktli0w0,hHTVVu8d,2020-0188,2020-06-04,07:43:48,08:20:24,NA,incomplete,231,gender,3,1,right,A_F_02.jpg,A_M_15.jpg,C_F_03.jpg,right,666.0499999998137,true,high,NA,NA,NA,NA,NA,NA,NA,false
hHTVVu8d,3mdwe879vkfdd3966pwqlqs1zxrb9a,3u088zljvo6pswhysmev4d0ktli0w0,hHTVVu8d,2020-0188,2020-06-04,07:43:48,08:20:24,NA,incomplete,232,gender,3,1,right,A_F_01.jpg,A_M_06.jpg,C_F_03.jpg,right,750.7350000087172,true,high,NA,NA,NA,NA,NA,NA,NA,false
hHTVVu8d,3mdwe879vkfdd3966pwqlqs1zxrb9a,3u088zljvo6pswhysmev4d0ktli0w0,hHTVVu8d,2020-0188,2020-06-04,07:43:48,08:20:24,NA,incomplete,233,gender,3,0,left,C_M_03.jpg,A_M_10.jpg,C_F_07.jpg,left,659.7899999762885,true,high,NA,NA,NA,NA,NA,NA,NA,false
hHTVVu8d,3mdwe879vkfdd3966pwqlqs1zxrb9a,3u088zljvo6pswhysmev4d0ktli0w0,hHTVVu8d,2020-0188,2020-06-04,07:43:48,08:20:24,NA,incomplete,234,gender,3,1,right,C_M_06.jpg,C_F_01.jpg,A_M_15.jpg,left,685.3950000079349,false,high,NA,NA,NA,NA,NA,NA,NA,false
hHTVVu8d,3mdwe879vkfdd3966pwqlqs1zxrb9a,3u088zljvo6pswhysmev4d0ktli0w0,hHTVVu8d,2020-0188,2020-06-04,07:43:48,08:20:24,NA,incomplete,235,gender,3,1,right,A_F_14.jpg,A_M_13.jpg,C_F_04.jpg,right,1147.5549999740906,true,high,NA,NA,NA,NA,NA,NA,NA,false
hHTVVu8d,3mdwe879vkfdd3966pwqlqs1zxrb9a,3u088zljvo6pswhysmev4d0ktli0w0,hHTVVu8d,2020-0188,2020-06-04,07:43:48,08:20:24,NA,incomplete,236,gender,3,0,left,C_F_12.jpg,A_F_11.jpg,C_M_16.jpg,left,692.2199999969453,true,high,NA,NA,NA,NA,NA,NA,NA,false
hHTVVu8d,3mdwe879vkfdd3966pwqlqs1zxrb9a,3u088zljvo6pswhysmev4d0ktli0w0,hHTVVu8d,2020-0188,2020-06-04,07:43:48,08:20:24,NA,incomplete,237,gender,3,1,right,A_M_07.jpg,A_F_12.jpg,C_M_13.jpg,right,931.1049999962561,true,high,NA,NA,NA,NA,NA,NA,NA,false
hHTVVu8d,3mdwe879vkfdd3966pwqlqs1zxrb9a,3u088zljvo6pswhysmev4d0ktli0w0,hHTVVu8d,2020-0188,2020-06-04,07:43:48,08:20:24,NA,incomplete,238,gender,3,0,left,A_F_02.jpg,C_F_14.jpg,A_M_16.jpg,left,679.8249999992549,true,high,NA,NA,NA,NA,NA,NA,NA,false
hHTVVu8d,3mdwe879vkfdd3966pwqlqs1zxrb9a,3u088zljvo6pswhysmev4d0ktli0w0,hHTVVu8d,2020-0188,2020-06-04,07:43:48,08:20:24,NA,incomplete,239,gender,3,1,right,C_F_01.jpg,C_M_13.jpg,A_F_05.jpg,right,711.974999983795,true,high,NA,NA,NA,NA,NA,NA,NA,false
hHTVVu8d,3mdwe879vkfdd3966pwqlqs1zxrb9a,3u088zljvo6pswhysmev4d0ktli0w0,hHTVVu8d,2020-0188,2020-06-04,07:43:48,08:20:24,NA,NA,instruction example,filling,NA,NA,NA,Red_Circle_Chess_4.jpg,Green_Star_Chess_3.jpg,Blue_Circle_Dots_1.jpg,NA,NA,NA,NA,NA,NA,NA,NA,NA,NA,NA,undefined
hHTVVu8d,3mdwe879vkfdd3966pwqlqs1zxrb9a,3u088zljvo6pswhysmev4d0ktli0w0,hHTVVu8d,2020-0188,2020-06-04,07:43:48,08:20:24,NA,NA,instruction example,filling,NA,NA,NA,Red_Star_Stripes_1.jpg,Green_Star_Chess_3.jpg,Blue_Circle_Stripes_2.jpg,NA,NA,NA,NA,NA,NA,NA,NA,NA,NA,NA,undefined
hHTVVu8d,3mdwe879vkfdd3966pwqlqs1zxrb9a,3u088zljvo6pswhysmev4d0ktli0w0,hHTVVu8d,2020-0188,2020-06-04,07:43:48,08:20:24,NA,NA,instruction example,filling,NA,NA,NA,C_F_04.jpg,C_M_09.jpg,A_F_06.jpg,NA,NA,NA,NA,NA,NA,NA,NA,NA,NA,NA,undefined
hHTVVu8d,3mdwe879vkfdd3966pwqlqs1zxrb9a,3u088zljvo6pswhysmev4d0ktli0w0,hHTVVu8d,2020-0188,2020-06-04,07:43:48,08:20:24,NA,NA,instruction example,filling,NA,NA,NA,A_M_01.jpg,C_M_08.jpg,A_F_15.jpg,NA,NA,NA,NA,NA,NA,NA,NA,NA,NA,NA,undefined
hHTVVu8d,3mdwe879vkfdd3966pwqlqs1zxrb9a,3u088zljvo6pswhysmev4d0ktli0w0,hHTVVu8d,2020-0188,2020-06-04,07:43:48,08:20:24,2160151.4100000206,2198500.7650000043,NA,NA,NA,NA,NA,NA,NA,NA,NA,NA,NA,NA,41,White/Caucasian,Male,White,no,no,no,undefined
