workerId,hitId,assignmentId,subject,studyid,exp_date,exp_start,exp_end,time_start,time_end,trial,type,sequence,reward_validity,answer,image_top,image_left,image_right,response,response_time,response_acc,volatility,practice
x1Ds9kCs,3oplmf3ev80afezcyc4phujqmmslnu,3u8ycdagxttk8zlcgdfpcoiz1x60qp,x1Ds9kCs,2020-0188,2020-11-16,20:43:09,21:02:04,NA,incomplete,0,number,0,1,right,Green_Star_Stripes_1.jpg,Green_Plus_Chess_4.jpg,Red_Triangle_Grid_1.jpg,left,831.4300000056392,false,NA,true
x1Ds9kCs,3oplmf3ev80afezcyc4phujqmmslnu,3u8ycdagxttk8zlcgdfpcoiz1x60qp,x1Ds9kCs,2020-0188,2020-11-16,20:43:09,21:02:04,NA,incomplete,1,number,0,1,right,Green_Circle_Grid_3.jpg,Green_Star_Stripes_1.jpg,Blue_Triangle_Chess_3.jpg,right,638.34499999939,true,NA,true
x1Ds9kCs,3oplmf3ev80afezcyc4phujqmmslnu,3u8ycdagxttk8zlcgdfpcoiz1x60qp,x1Ds9kCs,2020-0188,2020-11-16,20:43:09,21:02:04,NA,incomplete,2,number,0,1,left,Red_Circle_Dots_3.jpg,Green_Triangle_Grid_3.jpg,Red_Plus_Chess_4.jpg,right,482.0849999960046,false,NA,true
x1Ds9kCs,3oplmf3ev80afezcyc4phujqmmslnu,3u8ycdagxttk8zlcgdfpcoiz1x60qp,x1Ds9kCs,2020-0188,2020-11-16,20:43:09,21:02:04,NA,incomplete,3,number,0,1,left,Red_Circle_Grid_4.jpg,Green_Star_Chess_4.jpg,Red_Plus_Dots_1.jpg,left,592.7900000096997,true,NA,true
x1Ds9kCs,3oplmf3ev80afezcyc4phujqmmslnu,3u8ycdagxttk8zlcgdfpcoiz1x60qp,x1Ds9kCs,2020-0188,2020-11-16,20:43:09,21:02:04,NA,incomplete,4,number,0,1,left,Green_Circle_Chess_4.jpg,Purple_Triangle_Stripes_4.jpg,Green_Plus_Dots_3.jpg,left,595.0100000045495,true,NA,true
x1Ds9kCs,3oplmf3ev80afezcyc4phujqmmslnu,3u8ycdagxttk8zlcgdfpcoiz1x60qp,x1Ds9kCs,2020-0188,2020-11-16,20:43:09,21:02:04,NA,incomplete,5,number,0,0,left,Blue_Circle_Grid_3.jpg,Red_Star_Dots_3.jpg,Blue_Plus_Chess_2.jpg,left,622.71999999939,true,NA,true
x1Ds9kCs,3oplmf3ev80afezcyc4phujqmmslnu,3u8ycdagxttk8zlcgdfpcoiz1x60qp,x1Ds9kCs,2020-0188,2020-11-16,20:43:09,21:02:04,NA,incomplete,6,number,0,1,left,Red_Star_Grid_3.jpg,Green_Plus_Dots_3.jpg,Red_Triangle_Chess_1.jpg,left,673.144999993383,true,NA,true
x1Ds9kCs,3oplmf3ev80afezcyc4phujqmmslnu,3u8ycdagxttk8zlcgdfpcoiz1x60qp,x1Ds9kCs,2020-0188,2020-11-16,20:43:09,21:02:04,NA,incomplete,7,number,0,1,left,Green_Plus_Stripes_1.jpg,Red_Triangle_Chess_1.jpg,Green_Circle_Dots_3.jpg,left,717.8600000042934,true,NA,true
x1Ds9kCs,3oplmf3ev80afezcyc4phujqmmslnu,3u8ycdagxttk8zlcgdfpcoiz1x60qp,x1Ds9kCs,2020-0188,2020-11-16,20:43:09,21:02:04,NA,incomplete,8,number,0,0,right,Red_Star_Dots_2.jpg,Red_Circle_Stripes_3.jpg,Green_Triangle_Grid_2.jpg,right,620.8849999966333,true,NA,true
x1Ds9kCs,3oplmf3ev80afezcyc4phujqmmslnu,3u8ycdagxttk8zlcgdfpcoiz1x60qp,x1Ds9kCs,2020-0188,2020-11-16,20:43:09,21:02:04,NA,incomplete,9,number,0,1,left,Green_Plus_Chess_1.jpg,Blue_Star_Stripes_1.jpg,Green_Triangle_Dots_4.jpg,left,660.4799999913666,true,NA,true
x1Ds9kCs,3oplmf3ev80afezcyc4phujqmmslnu,3u8ycdagxttk8zlcgdfpcoiz1x60qp,x1Ds9kCs,2020-0188,2020-11-16,20:43:09,21:02:04,NA,incomplete,10,number,0,0,right,Red_Circle_Stripes_3.jpg,Red_Triangle_Dots_4.jpg,Purple_Star_Grid_3.jpg,right,610.755000001518,true,NA,true
x1Ds9kCs,3oplmf3ev80afezcyc4phujqmmslnu,3u8ycdagxttk8zlcgdfpcoiz1x60qp,x1Ds9kCs,2020-0188,2020-11-16,20:43:09,21:02:04,NA,incomplete,11,number,0,1,left,Blue_Triangle_Chess_2.jpg,Red_Star_Dots_2.jpg,Blue_Circle_Stripes_4.jpg,left,569.534999987809,true,NA,true
x1Ds9kCs,3oplmf3ev80afezcyc4phujqmmslnu,3u8ycdagxttk8zlcgdfpcoiz1x60qp,x1Ds9kCs,2020-0188,2020-11-16,20:43:09,21:02:04,NA,incomplete,12,number,0,1,left,Red_Triangle_Stripes_2.jpg,Green_Plus_Dots_2.jpg,Red_Circle_Grid_3.jpg,left,831.6699999995762,true,NA,true
x1Ds9kCs,3oplmf3ev80afezcyc4phujqmmslnu,3u8ycdagxttk8zlcgdfpcoiz1x60qp,x1Ds9kCs,2020-0188,2020-11-16,20:43:09,21:02:04,NA,incomplete,13,number,0,1,right,Green_Plus_Grid_1.jpg,Green_Circle_Stripes_2.jpg,Purple_Star_Dots_1.jpg,right,648.6100000038277,true,NA,true
x1Ds9kCs,3oplmf3ev80afezcyc4phujqmmslnu,3u8ycdagxttk8zlcgdfpcoiz1x60qp,x1Ds9kCs,2020-0188,2020-11-16,20:43:09,21:02:04,NA,incomplete,14,number,0,1,right,Purple_Plus_Dots_1.jpg,Purple_Triangle_Stripes_3.jpg,Green_Circle_Chess_1.jpg,right,525.5500000057509,true,NA,true
x1Ds9kCs,3oplmf3ev80afezcyc4phujqmmslnu,3u8ycdagxttk8zlcgdfpcoiz1x60qp,x1Ds9kCs,2020-0188,2020-11-16,20:43:09,21:02:04,NA,incomplete,15,number,0,0,left,Purple_Star_Grid_1.jpg,Green_Plus_Stripes_1.jpg,Purple_Circle_Dots_4.jpg,left,517.6799999899231,true,NA,true
x1Ds9kCs,3oplmf3ev80afezcyc4phujqmmslnu,3u8ycdagxttk8zlcgdfpcoiz1x60qp,x1Ds9kCs,2020-0188,2020-11-16,20:43:09,21:02:04,NA,incomplete,16,number,0,1,left,Purple_Plus_Grid_2.jpg,Red_Star_Chess_2.jpg,Purple_Circle_Dots_4.jpg,left,593.0349999980535,true,NA,true
x1Ds9kCs,3oplmf3ev80afezcyc4phujqmmslnu,3u8ycdagxttk8zlcgdfpcoiz1x60qp,x1Ds9kCs,2020-0188,2020-11-16,20:43:09,21:02:04,NA,incomplete,17,number,0,1,left,Green_Circle_Chess_1.jpg,Red_Star_Stripes_1.jpg,Green_Triangle_Dots_4.jpg,left,609.664999996312,true,NA,true
x1Ds9kCs,3oplmf3ev80afezcyc4phujqmmslnu,3u8ycdagxttk8zlcgdfpcoiz1x60qp,x1Ds9kCs,2020-0188,2020-11-16,20:43:09,21:02:04,NA,incomplete,18,number,0,1,left,Red_Plus_Dots_2.jpg,Green_Star_Stripes_2.jpg,Red_Triangle_Grid_1.jpg,left,765.1150000019697,true,NA,true
x1Ds9kCs,3oplmf3ev80afezcyc4phujqmmslnu,3u8ycdagxttk8zlcgdfpcoiz1x60qp,x1Ds9kCs,2020-0188,2020-11-16,20:43:09,21:02:04,NA,incomplete,19,number,0,1,right,Purple_Plus_Dots_4.jpg,Purple_Star_Chess_2.jpg,Green_Circle_Stripes_4.jpg,right,610.899999999674,true,NA,true
x1Ds9kCs,3oplmf3ev80afezcyc4phujqmmslnu,3u8ycdagxttk8zlcgdfpcoiz1x60qp,x1Ds9kCs,2020-0188,2020-11-16,20:43:09,21:02:04,NA,incomplete,20,color,1,1,right,Purple_Star_Chess_3.jpg,Green_Triangle_Grid_3.jpg,Purple_Plus_Dots_1.jpg,left,554.9000000028173,false,NA,true
x1Ds9kCs,3oplmf3ev80afezcyc4phujqmmslnu,3u8ycdagxttk8zlcgdfpcoiz1x60qp,x1Ds9kCs,2020-0188,2020-11-16,20:43:09,21:02:04,NA,incomplete,21,color,1,1,right,Blue_Plus_Dots_3.jpg,Purple_Star_Chess_3.jpg,Blue_Circle_Grid_2.jpg,left,626.3949999993201,false,NA,true
x1Ds9kCs,3oplmf3ev80afezcyc4phujqmmslnu,3u8ycdagxttk8zlcgdfpcoiz1x60qp,x1Ds9kCs,2020-0188,2020-11-16,20:43:09,21:02:04,NA,incomplete,22,color,1,1,left,Blue_Star_Dots_2.jpg,Blue_Circle_Stripes_3.jpg,Green_Triangle_Grid_2.jpg,left,635.7600000046659,true,NA,true
x1Ds9kCs,3oplmf3ev80afezcyc4phujqmmslnu,3u8ycdagxttk8zlcgdfpcoiz1x60qp,x1Ds9kCs,2020-0188,2020-11-16,20:43:09,21:02:04,NA,incomplete,23,color,1,1,right,Green_Triangle_Stripes_2.jpg,Blue_Plus_Grid_2.jpg,Green_Circle_Chess_1.jpg,right,712.9299999942305,true,NA,true
x1Ds9kCs,3oplmf3ev80afezcyc4phujqmmslnu,3u8ycdagxttk8zlcgdfpcoiz1x60qp,x1Ds9kCs,2020-0188,2020-11-16,20:43:09,21:02:04,NA,incomplete,24,color,1,1,left,Blue_Star_Stripes_4.jpg,Blue_Circle_Dots_1.jpg,Green_Plus_Grid_4.jpg,left,806.5950000018347,true,NA,true
x1Ds9kCs,3oplmf3ev80afezcyc4phujqmmslnu,3u8ycdagxttk8zlcgdfpcoiz1x60qp,x1Ds9kCs,2020-0188,2020-11-16,20:43:09,21:02:04,NA,incomplete,25,color,1,1,right,Blue_Circle_Chess_1.jpg,Red_Triangle_Grid_1.jpg,Blue_Plus_Stripes_4.jpg,right,511.4599999942584,true,NA,true
x1Ds9kCs,3oplmf3ev80afezcyc4phujqmmslnu,3u8ycdagxttk8zlcgdfpcoiz1x60qp,x1Ds9kCs,2020-0188,2020-11-16,20:43:09,21:02:04,NA,incomplete,26,color,1,1,left,Blue_Triangle_Grid_1.jpg,Blue_Plus_Chess_2.jpg,Purple_Star_Dots_1.jpg,left,464.4750000006752,true,NA,true
x1Ds9kCs,3oplmf3ev80afezcyc4phujqmmslnu,3u8ycdagxttk8zlcgdfpcoiz1x60qp,x1Ds9kCs,2020-0188,2020-11-16,20:43:09,21:02:04,NA,incomplete,27,color,1,0,left,Blue_Star_Chess_4.jpg,Blue_Circle_Stripes_1.jpg,Green_Plus_Grid_4.jpg,left,449.7549999941839,true,NA,true
x1Ds9kCs,3oplmf3ev80afezcyc4phujqmmslnu,3u8ycdagxttk8zlcgdfpcoiz1x60qp,x1Ds9kCs,2020-0188,2020-11-16,20:43:09,21:02:04,NA,incomplete,28,color,1,1,left,Blue_Circle_Dots_4.jpg,Blue_Star_Chess_3.jpg,Purple_Triangle_Stripes_4.jpg,left,488.149999990128,true,NA,true
x1Ds9kCs,3oplmf3ev80afezcyc4phujqmmslnu,3u8ycdagxttk8zlcgdfpcoiz1x60qp,x1Ds9kCs,2020-0188,2020-11-16,20:43:09,21:02:04,NA,incomplete,29,color,1,1,left,Purple_Triangle_Grid_4.jpg,Purple_Circle_Chess_3.jpg,Green_Plus_Dots_4.jpg,left,494.0199999982724,true,NA,true
x1Ds9kCs,3oplmf3ev80afezcyc4phujqmmslnu,3u8ycdagxttk8zlcgdfpcoiz1x60qp,x1Ds9kCs,2020-0188,2020-11-16,20:43:09,21:02:04,NA,incomplete,30,color,1,1,right,Purple_Plus_Chess_2.jpg,Blue_Circle_Dots_2.jpg,Purple_Triangle_Grid_4.jpg,right,414.2100000026403,true,NA,true
x1Ds9kCs,3oplmf3ev80afezcyc4phujqmmslnu,3u8ycdagxttk8zlcgdfpcoiz1x60qp,x1Ds9kCs,2020-0188,2020-11-16,20:43:09,21:02:04,NA,incomplete,31,color,1,1,left,Red_Star_Grid_1.jpg,Red_Triangle_Chess_3.jpg,Green_Circle_Dots_1.jpg,left,487.0599999994738,true,NA,true
x1Ds9kCs,3oplmf3ev80afezcyc4phujqmmslnu,3u8ycdagxttk8zlcgdfpcoiz1x60qp,x1Ds9kCs,2020-0188,2020-11-16,20:43:09,21:02:04,NA,incomplete,32,color,1,1,left,Green_Star_Grid_1.jpg,Green_Plus_Chess_4.jpg,Purple_Triangle_Stripes_1.jpg,left,462.1799999877112,true,NA,true
x1Ds9kCs,3oplmf3ev80afezcyc4phujqmmslnu,3u8ycdagxttk8zlcgdfpcoiz1x60qp,x1Ds9kCs,2020-0188,2020-11-16,20:43:09,21:02:04,NA,incomplete,33,color,1,1,right,Green_Triangle_Stripes_2.jpg,Blue_Plus_Chess_2.jpg,Green_Circle_Dots_3.jpg,right,405.38999999989755,true,NA,true
x1Ds9kCs,3oplmf3ev80afezcyc4phujqmmslnu,3u8ycdagxttk8zlcgdfpcoiz1x60qp,x1Ds9kCs,2020-0188,2020-11-16,20:43:09,21:02:04,NA,incomplete,34,color,1,0,left,Red_Circle_Chess_1.jpg,Red_Star_Stripes_3.jpg,Green_Plus_Dots_1.jpg,left,387.605000010808,true,NA,true
x1Ds9kCs,3oplmf3ev80afezcyc4phujqmmslnu,3u8ycdagxttk8zlcgdfpcoiz1x60qp,x1Ds9kCs,2020-0188,2020-11-16,20:43:09,21:02:04,NA,incomplete,35,color,1,1,right,Red_Triangle_Chess_1.jpg,Purple_Star_Dots_1.jpg,Red_Plus_Stripes_4.jpg,right,486.01499998767395,true,NA,true
x1Ds9kCs,3oplmf3ev80afezcyc4phujqmmslnu,3u8ycdagxttk8zlcgdfpcoiz1x60qp,x1Ds9kCs,2020-0188,2020-11-16,20:43:09,21:02:04,NA,incomplete,36,color,1,1,left,Green_Star_Grid_1.jpg,Green_Triangle_Stripes_4.jpg,Blue_Circle_Dots_1.jpg,left,400.2100000070641,true,NA,true
x1Ds9kCs,3oplmf3ev80afezcyc4phujqmmslnu,3u8ycdagxttk8zlcgdfpcoiz1x60qp,x1Ds9kCs,2020-0188,2020-11-16,20:43:09,21:02:04,NA,incomplete,37,color,1,1,left,Blue_Star_Dots_4.jpg,Blue_Plus_Grid_2.jpg,Green_Circle_Chess_4.jpg,left,497.90000000211876,true,NA,true
x1Ds9kCs,3oplmf3ev80afezcyc4phujqmmslnu,3u8ycdagxttk8zlcgdfpcoiz1x60qp,x1Ds9kCs,2020-0188,2020-11-16,20:43:09,21:02:04,NA,incomplete,38,color,1,0,left,Blue_Star_Chess_2.jpg,Blue_Circle_Stripes_3.jpg,Red_Plus_Dots_2.jpg,left,384.9599999957718,true,NA,true
x1Ds9kCs,3oplmf3ev80afezcyc4phujqmmslnu,3u8ycdagxttk8zlcgdfpcoiz1x60qp,x1Ds9kCs,2020-0188,2020-11-16,20:43:09,21:02:04,NA,incomplete,39,color,1,0,right,Purple_Plus_Chess_2.jpg,Blue_Triangle_Dots_2.jpg,Purple_Circle_Grid_3.jpg,right,521.1100000014994,true,NA,true
x1Ds9kCs,3oplmf3ev80afezcyc4phujqmmslnu,3u8ycdagxttk8zlcgdfpcoiz1x60qp,x1Ds9kCs,2020-0188,2020-11-16,20:43:09,21:02:04,NA,incomplete,0,number,0,1,right,Green_Plus_Chess_2.jpg,Green_Circle_Grid_3.jpg,Blue_Triangle_Dots_2.jpg,left,1003.1400000007125,false,high,false
x1Ds9kCs,3oplmf3ev80afezcyc4phujqmmslnu,3u8ycdagxttk8zlcgdfpcoiz1x60qp,x1Ds9kCs,2020-0188,2020-11-16,20:43:09,21:02:04,NA,incomplete,1,number,0,1,right,Green_Star_Grid_3.jpg,Green_Plus_Dots_1.jpg,Blue_Circle_Chess_3.jpg,right,724.0549999987707,true,high,false
x1Ds9kCs,3oplmf3ev80afezcyc4phujqmmslnu,3u8ycdagxttk8zlcgdfpcoiz1x60qp,x1Ds9kCs,2020-0188,2020-11-16,20:43:09,21:02:04,NA,incomplete,2,number,0,1,left,Blue_Star_Stripes_3.jpg,Green_Triangle_Chess_3.jpg,Blue_Plus_Grid_4.jpg,left,659.830000004149,true,high,false
x1Ds9kCs,3oplmf3ev80afezcyc4phujqmmslnu,3u8ycdagxttk8zlcgdfpcoiz1x60qp,x1Ds9kCs,2020-0188,2020-11-16,20:43:09,21:02:04,NA,incomplete,3,number,0,1,right,Green_Triangle_Dots_4.jpg,Green_Plus_Chess_1.jpg,Purple_Circle_Grid_4.jpg,right,620.6700000038836,true,high,false
x1Ds9kCs,3oplmf3ev80afezcyc4phujqmmslnu,3u8ycdagxttk8zlcgdfpcoiz1x60qp,x1Ds9kCs,2020-0188,2020-11-16,20:43:09,21:02:04,NA,incomplete,4,number,0,1,right,Blue_Triangle_Chess_4.jpg,Blue_Star_Grid_2.jpg,Green_Plus_Dots_4.jpg,right,677.7499999880092,true,high,false
x1Ds9kCs,3oplmf3ev80afezcyc4phujqmmslnu,3u8ycdagxttk8zlcgdfpcoiz1x60qp,x1Ds9kCs,2020-0188,2020-11-16,20:43:09,21:02:04,NA,incomplete,5,number,0,0,left,Green_Circle_Grid_3.jpg,Blue_Star_Chess_3.jpg,Green_Plus_Dots_1.jpg,left,492.3149999958696,true,high,false
x1Ds9kCs,3oplmf3ev80afezcyc4phujqmmslnu,3u8ycdagxttk8zlcgdfpcoiz1x60qp,x1Ds9kCs,2020-0188,2020-11-16,20:43:09,21:02:04,NA,incomplete,6,number,0,1,right,Purple_Circle_Chess_1.jpg,Purple_Plus_Stripes_3.jpg,Red_Triangle_Grid_1.jpg,left,660.4450000013458,false,high,false
x1Ds9kCs,3oplmf3ev80afezcyc4phujqmmslnu,3u8ycdagxttk8zlcgdfpcoiz1x60qp,x1Ds9kCs,2020-0188,2020-11-16,20:43:09,21:02:04,NA,incomplete,7,number,0,1,right,Green_Plus_Stripes_3.jpg,Green_Triangle_Grid_4.jpg,Blue_Circle_Dots_3.jpg,left,516.8750000011642,false,high,false
x1Ds9kCs,3oplmf3ev80afezcyc4phujqmmslnu,3u8ycdagxttk8zlcgdfpcoiz1x60qp,x1Ds9kCs,2020-0188,2020-11-16,20:43:09,21:02:04,NA,incomplete,8,number,0,1,right,Green_Plus_Stripes_3.jpg,Green_Triangle_Grid_2.jpg,Purple_Circle_Chess_3.jpg,right,628.6799999943469,true,high,false
x1Ds9kCs,3oplmf3ev80afezcyc4phujqmmslnu,3u8ycdagxttk8zlcgdfpcoiz1x60qp,x1Ds9kCs,2020-0188,2020-11-16,20:43:09,21:02:04,NA,incomplete,9,number,0,1,left,Red_Circle_Chess_1.jpg,Purple_Plus_Dots_1.jpg,Red_Triangle_Grid_2.jpg,left,656.2300000077812,true,high,false
x1Ds9kCs,3oplmf3ev80afezcyc4phujqmmslnu,3u8ycdagxttk8zlcgdfpcoiz1x60qp,x1Ds9kCs,2020-0188,2020-11-16,20:43:09,21:02:04,NA,incomplete,10,color,1,1,left,Purple_Circle_Grid_2.jpg,Purple_Plus_Chess_4.jpg,Green_Star_Stripes_2.jpg,right,632.3600000032457,false,high,false
x1Ds9kCs,3oplmf3ev80afezcyc4phujqmmslnu,3u8ycdagxttk8zlcgdfpcoiz1x60qp,x1Ds9kCs,2020-0188,2020-11-16,20:43:09,21:02:04,NA,incomplete,11,color,1,1,left,Purple_Circle_Stripes_1.jpg,Purple_Star_Dots_3.jpg,Blue_Plus_Grid_1.jpg,right,640.17500000773,false,high,false
x1Ds9kCs,3oplmf3ev80afezcyc4phujqmmslnu,3u8ycdagxttk8zlcgdfpcoiz1x60qp,x1Ds9kCs,2020-0188,2020-11-16,20:43:09,21:02:04,NA,incomplete,12,color,1,1,right,Purple_Plus_Stripes_1.jpg,Green_Circle_Chess_1.jpg,Purple_Star_Dots_2.jpg,right,791.8400000053225,true,high,false
x1Ds9kCs,3oplmf3ev80afezcyc4phujqmmslnu,3u8ycdagxttk8zlcgdfpcoiz1x60qp,x1Ds9kCs,2020-0188,2020-11-16,20:43:09,21:02:04,NA,incomplete,13,color,1,1,left,Red_Star_Chess_2.jpg,Red_Triangle_Grid_4.jpg,Purple_Plus_Stripes_2.jpg,left,583.1099999923026,true,high,false
x1Ds9kCs,3oplmf3ev80afezcyc4phujqmmslnu,3u8ycdagxttk8zlcgdfpcoiz1x60qp,x1Ds9kCs,2020-0188,2020-11-16,20:43:09,21:02:04,NA,incomplete,14,color,1,0,right,Blue_Triangle_Grid_2.jpg,Green_Circle_Chess_2.jpg,Blue_Star_Dots_1.jpg,right,605.3050000045914,true,high,false
x1Ds9kCs,3oplmf3ev80afezcyc4phujqmmslnu,3u8ycdagxttk8zlcgdfpcoiz1x60qp,x1Ds9kCs,2020-0188,2020-11-16,20:43:09,21:02:04,NA,incomplete,15,color,1,1,left,Red_Triangle_Chess_1.jpg,Red_Star_Stripes_4.jpg,Green_Plus_Grid_1.jpg,left,642.5549999985378,true,high,false
x1Ds9kCs,3oplmf3ev80afezcyc4phujqmmslnu,3u8ycdagxttk8zlcgdfpcoiz1x60qp,x1Ds9kCs,2020-0188,2020-11-16,20:43:09,21:02:04,NA,incomplete,16,color,1,1,left,Green_Triangle_Dots_2.jpg,Green_Star_Stripes_1.jpg,Blue_Circle_Grid_2.jpg,left,656.6600000078324,true,high,false
x1Ds9kCs,3oplmf3ev80afezcyc4phujqmmslnu,3u8ycdagxttk8zlcgdfpcoiz1x60qp,x1Ds9kCs,2020-0188,2020-11-16,20:43:09,21:02:04,NA,incomplete,17,color,1,1,left,Purple_Star_Dots_4.jpg,Purple_Triangle_Grid_3.jpg,Green_Plus_Chess_4.jpg,left,528.0499999935273,true,high,false
x1Ds9kCs,3oplmf3ev80afezcyc4phujqmmslnu,3u8ycdagxttk8zlcgdfpcoiz1x60qp,x1Ds9kCs,2020-0188,2020-11-16,20:43:09,21:02:04,NA,incomplete,18,color,1,0,left,Green_Star_Grid_4.jpg,Green_Triangle_Stripes_3.jpg,Red_Circle_Dots_4.jpg,left,572.5799999927403,true,high,false
x1Ds9kCs,3oplmf3ev80afezcyc4phujqmmslnu,3u8ycdagxttk8zlcgdfpcoiz1x60qp,x1Ds9kCs,2020-0188,2020-11-16,20:43:09,21:02:04,NA,incomplete,19,color,1,1,left,Green_Star_Chess_3.jpg,Green_Triangle_Dots_2.jpg,Blue_Circle_Stripes_3.jpg,left,500.6849999917904,true,high,false
x1Ds9kCs,3oplmf3ev80afezcyc4phujqmmslnu,3u8ycdagxttk8zlcgdfpcoiz1x60qp,x1Ds9kCs,2020-0188,2020-11-16,20:43:09,21:02:04,NA,incomplete,20,number,0,1,left,Red_Plus_Dots_2.jpg,Green_Triangle_Stripes_2.jpg,Red_Star_Grid_1.jpg,right,500.9449999924982,false,high,false
x1Ds9kCs,3oplmf3ev80afezcyc4phujqmmslnu,3u8ycdagxttk8zlcgdfpcoiz1x60qp,x1Ds9kCs,2020-0188,2020-11-16,20:43:09,21:02:04,NA,incomplete,21,number,0,1,right,Purple_Plus_Chess_1.jpg,Purple_Circle_Stripes_2.jpg,Blue_Star_Dots_1.jpg,right,719.2050000012387,true,high,false
x1Ds9kCs,3oplmf3ev80afezcyc4phujqmmslnu,3u8ycdagxttk8zlcgdfpcoiz1x60qp,x1Ds9kCs,2020-0188,2020-11-16,20:43:09,21:02:04,NA,incomplete,22,number,0,1,left,Purple_Star_Chess_1.jpg,Red_Plus_Grid_1.jpg,Purple_Circle_Dots_3.jpg,left,591.91999999166,true,high,false
x1Ds9kCs,3oplmf3ev80afezcyc4phujqmmslnu,3u8ycdagxttk8zlcgdfpcoiz1x60qp,x1Ds9kCs,2020-0188,2020-11-16,20:43:09,21:02:04,NA,incomplete,23,number,0,1,left,Red_Circle_Dots_4.jpg,Blue_Star_Grid_4.jpg,Red_Triangle_Chess_1.jpg,left,956.5799999982119,true,high,false
x1Ds9kCs,3oplmf3ev80afezcyc4phujqmmslnu,3u8ycdagxttk8zlcgdfpcoiz1x60qp,x1Ds9kCs,2020-0188,2020-11-16,20:43:09,21:02:04,NA,incomplete,24,number,0,1,left,Purple_Circle_Dots_1.jpg,Green_Triangle_Stripes_1.jpg,Purple_Plus_Grid_2.jpg,left,698.4800000063842,true,high,false
x1Ds9kCs,3oplmf3ev80afezcyc4phujqmmslnu,3u8ycdagxttk8zlcgdfpcoiz1x60qp,x1Ds9kCs,2020-0188,2020-11-16,20:43:09,21:02:04,NA,incomplete,25,number,0,1,left,Green_Plus_Chess_4.jpg,Blue_Circle_Dots_4.jpg,Green_Star_Stripes_3.jpg,left,691.3950000016484,true,high,false
x1Ds9kCs,3oplmf3ev80afezcyc4phujqmmslnu,3u8ycdagxttk8zlcgdfpcoiz1x60qp,x1Ds9kCs,2020-0188,2020-11-16,20:43:09,21:02:04,NA,incomplete,26,number,0,1,right,Purple_Star_Grid_1.jpg,Purple_Triangle_Dots_4.jpg,Green_Plus_Chess_1.jpg,right,617.3699999926612,true,high,false
x1Ds9kCs,3oplmf3ev80afezcyc4phujqmmslnu,3u8ycdagxttk8zlcgdfpcoiz1x60qp,x1Ds9kCs,2020-0188,2020-11-16,20:43:09,21:02:04,NA,incomplete,27,number,0,1,right,Green_Star_Chess_2.jpg,Green_Circle_Grid_3.jpg,Purple_Plus_Dots_2.jpg,right,551.0999999969499,true,high,false
x1Ds9kCs,3oplmf3ev80afezcyc4phujqmmslnu,3u8ycdagxttk8zlcgdfpcoiz1x60qp,x1Ds9kCs,2020-0188,2020-11-16,20:43:09,21:02:04,NA,incomplete,28,number,0,0,right,Blue_Triangle_Grid_2.jpg,Blue_Circle_Chess_3.jpg,Purple_Plus_Stripes_2.jpg,right,570.6449999997858,true,high,false
x1Ds9kCs,3oplmf3ev80afezcyc4phujqmmslnu,3u8ycdagxttk8zlcgdfpcoiz1x60qp,x1Ds9kCs,2020-0188,2020-11-16,20:43:09,21:02:04,NA,incomplete,29,number,0,0,right,Blue_Triangle_Chess_4.jpg,Blue_Circle_Dots_1.jpg,Purple_Plus_Grid_4.jpg,right,642.0499999949243,true,high,false
x1Ds9kCs,3oplmf3ev80afezcyc4phujqmmslnu,3u8ycdagxttk8zlcgdfpcoiz1x60qp,x1Ds9kCs,2020-0188,2020-11-16,20:43:09,21:02:04,NA,incomplete,30,color,1,1,right,Red_Star_Grid_1.jpg,Purple_Triangle_Chess_1.jpg,Red_Plus_Stripes_3.jpg,right,540.5099999916274,true,high,false
x1Ds9kCs,3oplmf3ev80afezcyc4phujqmmslnu,3u8ycdagxttk8zlcgdfpcoiz1x60qp,x1Ds9kCs,2020-0188,2020-11-16,20:43:09,21:02:04,NA,incomplete,31,color,1,1,left,Purple_Circle_Grid_3.jpg,Purple_Triangle_Dots_1.jpg,Green_Star_Stripes_3.jpg,left,567.0749999990221,true,high,false
x1Ds9kCs,3oplmf3ev80afezcyc4phujqmmslnu,3u8ycdagxttk8zlcgdfpcoiz1x60qp,x1Ds9kCs,2020-0188,2020-11-16,20:43:09,21:02:04,NA,incomplete,32,color,1,1,right,Blue_Triangle_Grid_1.jpg,Purple_Plus_Stripes_1.jpg,Blue_Circle_Chess_2.jpg,right,701.1300000012852,true,high,false
x1Ds9kCs,3oplmf3ev80afezcyc4phujqmmslnu,3u8ycdagxttk8zlcgdfpcoiz1x60qp,x1Ds9kCs,2020-0188,2020-11-16,20:43:09,21:02:04,NA,incomplete,33,color,1,1,left,Red_Star_Grid_1.jpg,Red_Circle_Chess_2.jpg,Blue_Plus_Dots_1.jpg,left,600.4099999991013,true,high,false
x1Ds9kCs,3oplmf3ev80afezcyc4phujqmmslnu,3u8ycdagxttk8zlcgdfpcoiz1x60qp,x1Ds9kCs,2020-0188,2020-11-16,20:43:09,21:02:04,NA,incomplete,34,color,1,0,left,Red_Plus_Dots_3.jpg,Red_Circle_Stripes_2.jpg,Green_Star_Grid_3.jpg,left,718.1149999960326,true,high,false
x1Ds9kCs,3oplmf3ev80afezcyc4phujqmmslnu,3u8ycdagxttk8zlcgdfpcoiz1x60qp,x1Ds9kCs,2020-0188,2020-11-16,20:43:09,21:02:04,NA,incomplete,35,color,1,0,right,Purple_Plus_Grid_1.jpg,Red_Star_Stripes_1.jpg,Purple_Triangle_Dots_4.jpg,right,592.0699999987846,true,high,false
x1Ds9kCs,3oplmf3ev80afezcyc4phujqmmslnu,3u8ycdagxttk8zlcgdfpcoiz1x60qp,x1Ds9kCs,2020-0188,2020-11-16,20:43:09,21:02:04,NA,incomplete,36,color,1,1,left,Purple_Plus_Dots_1.jpg,Purple_Circle_Chess_2.jpg,Red_Triangle_Stripes_1.jpg,left,795.4199999949196,true,high,false
x1Ds9kCs,3oplmf3ev80afezcyc4phujqmmslnu,3u8ycdagxttk8zlcgdfpcoiz1x60qp,x1Ds9kCs,2020-0188,2020-11-16,20:43:09,21:02:04,NA,incomplete,37,color,1,1,left,Red_Triangle_Stripes_1.jpg,Red_Plus_Grid_4.jpg,Green_Circle_Dots_1.jpg,left,450.08000000962056,true,high,false
x1Ds9kCs,3oplmf3ev80afezcyc4phujqmmslnu,3u8ycdagxttk8zlcgdfpcoiz1x60qp,x1Ds9kCs,2020-0188,2020-11-16,20:43:09,21:02:04,NA,incomplete,38,color,1,1,left,Blue_Star_Dots_3.jpg,Blue_Circle_Chess_2.jpg,Red_Plus_Stripes_3.jpg,left,668.6149999877671,true,high,false
x1Ds9kCs,3oplmf3ev80afezcyc4phujqmmslnu,3u8ycdagxttk8zlcgdfpcoiz1x60qp,x1Ds9kCs,2020-0188,2020-11-16,20:43:09,21:02:04,NA,incomplete,39,color,1,1,left,Purple_Star_Chess_3.jpg,Purple_Triangle_Grid_2.jpg,Green_Plus_Stripes_3.jpg,left,739.7599999967497,true,high,false
x1Ds9kCs,3oplmf3ev80afezcyc4phujqmmslnu,3u8ycdagxttk8zlcgdfpcoiz1x60qp,x1Ds9kCs,2020-0188,2020-11-16,20:43:09,21:02:04,NA,incomplete,40,number,0,1,right,Green_Triangle_Grid_3.jpg,Green_Plus_Chess_4.jpg,Red_Star_Stripes_3.jpg,left,534.6100000024308,false,high,false
x1Ds9kCs,3oplmf3ev80afezcyc4phujqmmslnu,3u8ycdagxttk8zlcgdfpcoiz1x60qp,x1Ds9kCs,2020-0188,2020-11-16,20:43:09,21:02:04,NA,incomplete,41,number,0,1,right,Blue_Plus_Chess_2.jpg,Blue_Star_Stripes_4.jpg,Red_Circle_Grid_2.jpg,right,728.4849999996368,true,high,false
x1Ds9kCs,3oplmf3ev80afezcyc4phujqmmslnu,3u8ycdagxttk8zlcgdfpcoiz1x60qp,x1Ds9kCs,2020-0188,2020-11-16,20:43:09,21:02:04,NA,incomplete,42,number,0,1,right,Red_Triangle_Dots_3.jpg,Red_Plus_Grid_1.jpg,Green_Circle_Stripes_3.jpg,left,739.6950000111246,false,high,false
x1Ds9kCs,3oplmf3ev80afezcyc4phujqmmslnu,3u8ycdagxttk8zlcgdfpcoiz1x60qp,x1Ds9kCs,2020-0188,2020-11-16,20:43:09,21:02:04,NA,incomplete,43,number,0,1,left,Blue_Circle_Dots_1.jpg,Green_Star_Grid_1.jpg,Blue_Triangle_Chess_4.jpg,left,850.0349999958416,true,high,false
x1Ds9kCs,3oplmf3ev80afezcyc4phujqmmslnu,3u8ycdagxttk8zlcgdfpcoiz1x60qp,x1Ds9kCs,2020-0188,2020-11-16,20:43:09,21:02:04,NA,incomplete,44,number,0,1,right,Red_Plus_Grid_4.jpg,Red_Star_Stripes_3.jpg,Green_Circle_Dots_4.jpg,right,689.0049999929033,true,high,false
x1Ds9kCs,3oplmf3ev80afezcyc4phujqmmslnu,3u8ycdagxttk8zlcgdfpcoiz1x60qp,x1Ds9kCs,2020-0188,2020-11-16,20:43:09,21:02:04,NA,incomplete,45,number,0,0,right,Red_Triangle_Grid_3.jpg,Red_Plus_Chess_1.jpg,Green_Star_Stripes_3.jpg,right,634.474999998929,true,high,false
x1Ds9kCs,3oplmf3ev80afezcyc4phujqmmslnu,3u8ycdagxttk8zlcgdfpcoiz1x60qp,x1Ds9kCs,2020-0188,2020-11-16,20:43:09,21:02:04,NA,incomplete,46,number,0,1,right,Red_Circle_Dots_4.jpg,Red_Plus_Stripes_2.jpg,Blue_Triangle_Chess_4.jpg,left,765.1550000009593,false,high,false
x1Ds9kCs,3oplmf3ev80afezcyc4phujqmmslnu,3u8ycdagxttk8zlcgdfpcoiz1x60qp,x1Ds9kCs,2020-0188,2020-11-16,20:43:09,21:02:04,NA,incomplete,47,number,0,1,left,Red_Star_Chess_2.jpg,Green_Plus_Dots_2.jpg,Red_Triangle_Stripes_3.jpg,left,675.0400000018999,true,high,false
x1Ds9kCs,3oplmf3ev80afezcyc4phujqmmslnu,3u8ycdagxttk8zlcgdfpcoiz1x60qp,x1Ds9kCs,2020-0188,2020-11-16,20:43:09,21:02:04,NA,incomplete,48,number,0,1,left,Blue_Plus_Dots_4.jpg,Red_Triangle_Grid_4.jpg,Blue_Star_Chess_3.jpg,left,733.5800000000745,true,high,false
x1Ds9kCs,3oplmf3ev80afezcyc4phujqmmslnu,3u8ycdagxttk8zlcgdfpcoiz1x60qp,x1Ds9kCs,2020-0188,2020-11-16,20:43:09,21:02:04,NA,incomplete,49,number,0,1,left,Blue_Triangle_Dots_4.jpg,Purple_Plus_Chess_4.jpg,Blue_Circle_Stripes_1.jpg,left,606.3749999884749,true,high,false
x1Ds9kCs,3oplmf3ev80afezcyc4phujqmmslnu,3u8ycdagxttk8zlcgdfpcoiz1x60qp,x1Ds9kCs,2020-0188,2020-11-16,20:43:09,21:02:04,NA,incomplete,50,color,1,0,left,Green_Circle_Chess_4.jpg,Green_Star_Grid_3.jpg,Purple_Triangle_Dots_4.jpg,right,785.9949999983655,false,high,false
x1Ds9kCs,3oplmf3ev80afezcyc4phujqmmslnu,3u8ycdagxttk8zlcgdfpcoiz1x60qp,x1Ds9kCs,2020-0188,2020-11-16,20:43:09,21:02:04,NA,incomplete,51,color,1,1,left,Purple_Plus_Dots_4.jpg,Purple_Triangle_Chess_2.jpg,Blue_Star_Grid_4.jpg,right,879.1300000011688,false,high,false
x1Ds9kCs,3oplmf3ev80afezcyc4phujqmmslnu,3u8ycdagxttk8zlcgdfpcoiz1x60qp,x1Ds9kCs,2020-0188,2020-11-16,20:43:09,21:02:04,NA,incomplete,52,color,1,1,left,Blue_Plus_Grid_3.jpg,Blue_Star_Dots_1.jpg,Green_Circle_Chess_3.jpg,left,520.5349999887403,true,high,false
x1Ds9kCs,3oplmf3ev80afezcyc4phujqmmslnu,3u8ycdagxttk8zlcgdfpcoiz1x60qp,x1Ds9kCs,2020-0188,2020-11-16,20:43:09,21:02:04,NA,incomplete,53,color,1,0,left,Red_Star_Chess_4.jpg,Red_Circle_Stripes_2.jpg,Purple_Plus_Dots_4.jpg,left,672.2100000042701,true,high,false
x1Ds9kCs,3oplmf3ev80afezcyc4phujqmmslnu,3u8ycdagxttk8zlcgdfpcoiz1x60qp,x1Ds9kCs,2020-0188,2020-11-16,20:43:09,21:02:04,NA,incomplete,54,color,1,1,left,Blue_Plus_Dots_4.jpg,Blue_Circle_Grid_1.jpg,Red_Triangle_Stripes_4.jpg,right,761.2549999903422,false,high,false
x1Ds9kCs,3oplmf3ev80afezcyc4phujqmmslnu,3u8ycdagxttk8zlcgdfpcoiz1x60qp,x1Ds9kCs,2020-0188,2020-11-16,20:43:09,21:02:04,NA,incomplete,55,color,1,0,left,Purple_Triangle_Stripes_1.jpg,Purple_Circle_Chess_2.jpg,Green_Plus_Dots_1.jpg,left,651.6200000041863,true,high,false
x1Ds9kCs,3oplmf3ev80afezcyc4phujqmmslnu,3u8ycdagxttk8zlcgdfpcoiz1x60qp,x1Ds9kCs,2020-0188,2020-11-16,20:43:09,21:02:04,NA,incomplete,56,color,1,1,right,Blue_Triangle_Grid_3.jpg,Purple_Star_Chess_3.jpg,Blue_Plus_Dots_4.jpg,left,831.3249999919208,false,high,false
x1Ds9kCs,3oplmf3ev80afezcyc4phujqmmslnu,3u8ycdagxttk8zlcgdfpcoiz1x60qp,x1Ds9kCs,2020-0188,2020-11-16,20:43:09,21:02:04,NA,incomplete,57,color,1,1,right,Red_Triangle_Chess_3.jpg,Blue_Plus_Dots_3.jpg,Red_Circle_Stripes_2.jpg,none,0,false,high,false
x1Ds9kCs,3oplmf3ev80afezcyc4phujqmmslnu,3u8ycdagxttk8zlcgdfpcoiz1x60qp,x1Ds9kCs,2020-0188,2020-11-16,20:43:09,21:02:04,NA,incomplete,58,color,1,1,left,Green_Circle_Chess_2.jpg,Green_Star_Dots_1.jpg,Red_Plus_Stripes_2.jpg,left,679.3600000091828,true,high,false
x1Ds9kCs,3oplmf3ev80afezcyc4phujqmmslnu,3u8ycdagxttk8zlcgdfpcoiz1x60qp,x1Ds9kCs,2020-0188,2020-11-16,20:43:09,21:02:04,NA,incomplete,59,color,1,1,right,Blue_Star_Stripes_3.jpg,Green_Triangle_Chess_3.jpg,Blue_Circle_Grid_2.jpg,right,658.8049999991199,true,high,false
x1Ds9kCs,3oplmf3ev80afezcyc4phujqmmslnu,3u8ycdagxttk8zlcgdfpcoiz1x60qp,x1Ds9kCs,2020-0188,2020-11-16,20:43:09,21:02:04,NA,incomplete,60,number,0,0,left,Red_Circle_Dots_1.jpg,Purple_Plus_Chess_1.jpg,Red_Star_Grid_2.jpg,right,436.15999999747146,false,high,false
x1Ds9kCs,3oplmf3ev80afezcyc4phujqmmslnu,3u8ycdagxttk8zlcgdfpcoiz1x60qp,x1Ds9kCs,2020-0188,2020-11-16,20:43:09,21:02:04,NA,incomplete,61,number,0,1,left,Blue_Plus_Dots_2.jpg,Green_Star_Grid_2.jpg,Blue_Triangle_Chess_4.jpg,right,487.6700000022538,false,high,false
x1Ds9kCs,3oplmf3ev80afezcyc4phujqmmslnu,3u8ycdagxttk8zlcgdfpcoiz1x60qp,x1Ds9kCs,2020-0188,2020-11-16,20:43:09,21:02:04,NA,incomplete,62,number,0,1,right,Purple_Triangle_Grid_2.jpg,Purple_Plus_Dots_1.jpg,Blue_Circle_Chess_2.jpg,left,511.35499999509193,false,high,false
x1Ds9kCs,3oplmf3ev80afezcyc4phujqmmslnu,3u8ycdagxttk8zlcgdfpcoiz1x60qp,x1Ds9kCs,2020-0188,2020-11-16,20:43:09,21:02:04,NA,incomplete,63,number,0,1,right,Blue_Triangle_Dots_3.jpg,Blue_Plus_Chess_1.jpg,Red_Circle_Grid_3.jpg,right,567.4200000066776,true,high,false
x1Ds9kCs,3oplmf3ev80afezcyc4phujqmmslnu,3u8ycdagxttk8zlcgdfpcoiz1x60qp,x1Ds9kCs,2020-0188,2020-11-16,20:43:09,21:02:04,NA,incomplete,64,number,0,1,left,Red_Triangle_Stripes_4.jpg,Green_Star_Chess_4.jpg,Red_Circle_Grid_1.jpg,left,514.3700000044191,true,high,false
x1Ds9kCs,3oplmf3ev80afezcyc4phujqmmslnu,3u8ycdagxttk8zlcgdfpcoiz1x60qp,x1Ds9kCs,2020-0188,2020-11-16,20:43:09,21:02:04,NA,incomplete,65,number,0,1,left,Red_Plus_Chess_2.jpg,Purple_Circle_Stripes_2.jpg,Red_Triangle_Grid_4.jpg,left,704.8650000069756,true,high,false
x1Ds9kCs,3oplmf3ev80afezcyc4phujqmmslnu,3u8ycdagxttk8zlcgdfpcoiz1x60qp,x1Ds9kCs,2020-0188,2020-11-16,20:43:09,21:02:04,NA,incomplete,66,number,0,1,right,Blue_Circle_Dots_2.jpg,Blue_Star_Grid_1.jpg,Purple_Triangle_Chess_2.jpg,right,685.605000006035,true,high,false
x1Ds9kCs,3oplmf3ev80afezcyc4phujqmmslnu,3u8ycdagxttk8zlcgdfpcoiz1x60qp,x1Ds9kCs,2020-0188,2020-11-16,20:43:09,21:02:04,NA,incomplete,67,number,0,1,right,Purple_Circle_Chess_1.jpg,Purple_Triangle_Grid_4.jpg,Blue_Star_Stripes_1.jpg,right,645.7149999914691,true,high,false
x1Ds9kCs,3oplmf3ev80afezcyc4phujqmmslnu,3u8ycdagxttk8zlcgdfpcoiz1x60qp,x1Ds9kCs,2020-0188,2020-11-16,20:43:09,21:02:04,NA,incomplete,68,number,0,1,right,Red_Triangle_Chess_2.jpg,Red_Circle_Dots_3.jpg,Blue_Plus_Grid_2.jpg,left,655.1649999892106,false,high,false
x1Ds9kCs,3oplmf3ev80afezcyc4phujqmmslnu,3u8ycdagxttk8zlcgdfpcoiz1x60qp,x1Ds9kCs,2020-0188,2020-11-16,20:43:09,21:02:04,NA,incomplete,69,number,0,1,left,Purple_Plus_Grid_4.jpg,Red_Circle_Dots_4.jpg,Purple_Star_Stripes_2.jpg,left,750.9399999980815,true,high,false
x1Ds9kCs,3oplmf3ev80afezcyc4phujqmmslnu,3u8ycdagxttk8zlcgdfpcoiz1x60qp,x1Ds9kCs,2020-0188,2020-11-16,20:43:09,21:02:04,NA,incomplete,70,color,1,1,left,Purple_Triangle_Grid_2.jpg,Purple_Star_Chess_3.jpg,Green_Plus_Stripes_2.jpg,right,776.9850000040606,false,high,false
x1Ds9kCs,3oplmf3ev80afezcyc4phujqmmslnu,3u8ycdagxttk8zlcgdfpcoiz1x60qp,x1Ds9kCs,2020-0188,2020-11-16,20:43:09,21:02:04,NA,incomplete,71,color,1,0,left,Red_Plus_Chess_4.jpg,Red_Circle_Dots_2.jpg,Purple_Star_Grid_4.jpg,right,672.0000000059372,false,high,false
x1Ds9kCs,3oplmf3ev80afezcyc4phujqmmslnu,3u8ycdagxttk8zlcgdfpcoiz1x60qp,x1Ds9kCs,2020-0188,2020-11-16,20:43:09,21:02:04,NA,incomplete,72,color,1,1,left,Purple_Triangle_Stripes_4.jpg,Purple_Plus_Dots_3.jpg,Green_Star_Chess_4.jpg,right,662.785000007716,false,high,false
x1Ds9kCs,3oplmf3ev80afezcyc4phujqmmslnu,3u8ycdagxttk8zlcgdfpcoiz1x60qp,x1Ds9kCs,2020-0188,2020-11-16,20:43:09,21:02:04,NA,incomplete,73,color,1,0,right,Blue_Triangle_Dots_3.jpg,Red_Plus_Chess_3.jpg,Blue_Circle_Stripes_4.jpg,right,744.3400000047404,true,high,false
x1Ds9kCs,3oplmf3ev80afezcyc4phujqmmslnu,3u8ycdagxttk8zlcgdfpcoiz1x60qp,x1Ds9kCs,2020-0188,2020-11-16,20:43:09,21:02:04,NA,incomplete,74,color,1,1,left,Blue_Triangle_Chess_2.jpg,Blue_Plus_Dots_3.jpg,Purple_Circle_Grid_2.jpg,left,512.2249999985797,true,high,false
x1Ds9kCs,3oplmf3ev80afezcyc4phujqmmslnu,3u8ycdagxttk8zlcgdfpcoiz1x60qp,x1Ds9kCs,2020-0188,2020-11-16,20:43:09,21:02:04,NA,incomplete,75,color,1,1,right,Purple_Star_Dots_4.jpg,Red_Circle_Grid_4.jpg,Purple_Plus_Chess_1.jpg,left,719.409999990603,false,high,false
x1Ds9kCs,3oplmf3ev80afezcyc4phujqmmslnu,3u8ycdagxttk8zlcgdfpcoiz1x60qp,x1Ds9kCs,2020-0188,2020-11-16,20:43:09,21:02:04,NA,incomplete,76,color,1,0,right,Blue_Triangle_Dots_4.jpg,Purple_Star_Stripes_4.jpg,Blue_Circle_Grid_2.jpg,right,589.879999999539,true,high,false
x1Ds9kCs,3oplmf3ev80afezcyc4phujqmmslnu,3u8ycdagxttk8zlcgdfpcoiz1x60qp,x1Ds9kCs,2020-0188,2020-11-16,20:43:09,21:02:04,NA,incomplete,77,color,1,1,left,Blue_Triangle_Dots_1.jpg,Blue_Circle_Stripes_3.jpg,Red_Plus_Chess_1.jpg,left,713.5599999892293,true,high,false
x1Ds9kCs,3oplmf3ev80afezcyc4phujqmmslnu,3u8ycdagxttk8zlcgdfpcoiz1x60qp,x1Ds9kCs,2020-0188,2020-11-16,20:43:09,21:02:04,NA,incomplete,78,color,1,0,left,Green_Circle_Grid_1.jpg,Green_Triangle_Stripes_2.jpg,Red_Star_Chess_1.jpg,left,550.585000004503,true,high,false
x1Ds9kCs,3oplmf3ev80afezcyc4phujqmmslnu,3u8ycdagxttk8zlcgdfpcoiz1x60qp,x1Ds9kCs,2020-0188,2020-11-16,20:43:09,21:02:04,NA,incomplete,79,color,1,1,left,Red_Circle_Grid_4.jpg,Red_Plus_Chess_2.jpg,Green_Star_Dots_4.jpg,right,749.9450000032084,false,high,false
x1Ds9kCs,3oplmf3ev80afezcyc4phujqmmslnu,3u8ycdagxttk8zlcgdfpcoiz1x60qp,x1Ds9kCs,2020-0188,2020-11-16,20:43:09,21:02:04,NA,incomplete,80,number,0,0,right,Purple_Triangle_Dots_4.jpg,Purple_Circle_Grid_1.jpg,Green_Plus_Chess_4.jpg,left,942.7950000099372,false,high,false
x1Ds9kCs,3oplmf3ev80afezcyc4phujqmmslnu,3u8ycdagxttk8zlcgdfpcoiz1x60qp,x1Ds9kCs,2020-0188,2020-11-16,20:43:09,21:02:04,NA,incomplete,81,number,0,0,left,Red_Plus_Grid_3.jpg,Blue_Star_Stripes_3.jpg,Red_Triangle_Dots_4.jpg,right,1767.729999992298,false,high,false
x1Ds9kCs,3oplmf3ev80afezcyc4phujqmmslnu,3u8ycdagxttk8zlcgdfpcoiz1x60qp,x1Ds9kCs,2020-0188,2020-11-16,20:43:09,21:02:04,NA,incomplete,82,number,0,0,right,Red_Star_Chess_3.jpg,Red_Circle_Stripes_4.jpg,Blue_Plus_Dots_3.jpg,right,1140.4450000118231,true,high,false
x1Ds9kCs,3oplmf3ev80afezcyc4phujqmmslnu,3u8ycdagxttk8zlcgdfpcoiz1x60qp,x1Ds9kCs,2020-0188,2020-11-16,20:43:09,21:02:04,NA,incomplete,83,number,0,1,left,Blue_Plus_Chess_1.jpg,Green_Triangle_Grid_1.jpg,Blue_Circle_Dots_4.jpg,right,563.7199999910081,false,high,false
x1Ds9kCs,3oplmf3ev80afezcyc4phujqmmslnu,3u8ycdagxttk8zlcgdfpcoiz1x60qp,x1Ds9kCs,2020-0188,2020-11-16,20:43:09,21:02:04,NA,incomplete,84,number,0,1,right,Purple_Circle_Stripes_3.jpg,Purple_Triangle_Grid_1.jpg,Red_Plus_Dots_3.jpg,right,724.6600000071339,true,high,false
x1Ds9kCs,3oplmf3ev80afezcyc4phujqmmslnu,3u8ycdagxttk8zlcgdfpcoiz1x60qp,x1Ds9kCs,2020-0188,2020-11-16,20:43:09,21:02:04,NA,incomplete,85,number,0,0,left,Green_Star_Grid_2.jpg,Purple_Triangle_Dots_2.jpg,Green_Circle_Chess_4.jpg,left,782.2049999958836,true,high,false
x1Ds9kCs,3oplmf3ev80afezcyc4phujqmmslnu,3u8ycdagxttk8zlcgdfpcoiz1x60qp,x1Ds9kCs,2020-0188,2020-11-16,20:43:09,21:02:04,NA,incomplete,86,number,0,1,right,Red_Plus_Grid_3.jpg,Red_Triangle_Stripes_4.jpg,Blue_Star_Chess_3.jpg,left,1165.5449999962002,false,high,false
x1Ds9kCs,3oplmf3ev80afezcyc4phujqmmslnu,3u8ycdagxttk8zlcgdfpcoiz1x60qp,x1Ds9kCs,2020-0188,2020-11-16,20:43:09,21:02:04,NA,incomplete,87,number,0,1,right,Blue_Circle_Grid_3.jpg,Blue_Plus_Chess_4.jpg,Green_Star_Dots_3.jpg,left,804.6449999965262,false,high,false
x1Ds9kCs,3oplmf3ev80afezcyc4phujqmmslnu,3u8ycdagxttk8zlcgdfpcoiz1x60qp,x1Ds9kCs,2020-0188,2020-11-16,20:43:09,21:02:04,NA,incomplete,88,number,0,1,left,Blue_Triangle_Chess_4.jpg,Purple_Circle_Stripes_4.jpg,Blue_Star_Dots_3.jpg,left,811.2099999998463,true,high,false
x1Ds9kCs,3oplmf3ev80afezcyc4phujqmmslnu,3u8ycdagxttk8zlcgdfpcoiz1x60qp,x1Ds9kCs,2020-0188,2020-11-16,20:43:09,21:02:04,NA,incomplete,89,number,0,1,left,Green_Plus_Grid_4.jpg,Blue_Triangle_Chess_4.jpg,Green_Star_Stripes_2.jpg,left,649.1300000052433,true,high,false
x1Ds9kCs,3oplmf3ev80afezcyc4phujqmmslnu,3u8ycdagxttk8zlcgdfpcoiz1x60qp,x1Ds9kCs,2020-0188,2020-11-16,20:43:09,21:02:04,NA,incomplete,90,color,1,1,right,Red_Circle_Grid_3.jpg,Green_Triangle_Dots_3.jpg,Red_Star_Stripes_4.jpg,left,1589.4550000084564,false,high,false
x1Ds9kCs,3oplmf3ev80afezcyc4phujqmmslnu,3u8ycdagxttk8zlcgdfpcoiz1x60qp,x1Ds9kCs,2020-0188,2020-11-16,20:43:09,21:02:04,NA,incomplete,91,color,1,1,left,Blue_Circle_Dots_1.jpg,Blue_Star_Chess_4.jpg,Red_Triangle_Grid_1.jpg,right,672.6800000033109,false,high,false
x1Ds9kCs,3oplmf3ev80afezcyc4phujqmmslnu,3u8ycdagxttk8zlcgdfpcoiz1x60qp,x1Ds9kCs,2020-0188,2020-11-16,20:43:09,21:02:04,NA,incomplete,92,color,1,1,right,Purple_Star_Dots_1.jpg,Blue_Plus_Stripes_1.jpg,Purple_Triangle_Chess_4.jpg,right,531.5649999974994,true,high,false
x1Ds9kCs,3oplmf3ev80afezcyc4phujqmmslnu,3u8ycdagxttk8zlcgdfpcoiz1x60qp,x1Ds9kCs,2020-0188,2020-11-16,20:43:09,21:02:04,NA,incomplete,93,color,1,1,left,Green_Circle_Grid_1.jpg,Green_Triangle_Chess_2.jpg,Purple_Star_Stripes_1.jpg,right,808.8649999990594,false,high,false
x1Ds9kCs,3oplmf3ev80afezcyc4phujqmmslnu,3u8ycdagxttk8zlcgdfpcoiz1x60qp,x1Ds9kCs,2020-0188,2020-11-16,20:43:09,21:02:04,NA,incomplete,94,color,1,1,left,Purple_Plus_Chess_1.jpg,Purple_Triangle_Dots_3.jpg,Green_Star_Stripes_1.jpg,right,596.8350000039209,false,high,false
x1Ds9kCs,3oplmf3ev80afezcyc4phujqmmslnu,3u8ycdagxttk8zlcgdfpcoiz1x60qp,x1Ds9kCs,2020-0188,2020-11-16,20:43:09,21:02:04,NA,incomplete,95,color,1,1,right,Blue_Circle_Chess_4.jpg,Purple_Triangle_Grid_4.jpg,Blue_Plus_Stripes_2.jpg,right,837.0749999885447,true,high,false
x1Ds9kCs,3oplmf3ev80afezcyc4phujqmmslnu,3u8ycdagxttk8zlcgdfpcoiz1x60qp,x1Ds9kCs,2020-0188,2020-11-16,20:43:09,21:02:04,NA,incomplete,96,color,1,0,right,Blue_Plus_Chess_1.jpg,Red_Star_Grid_1.jpg,Blue_Circle_Dots_3.jpg,right,530.5349999980535,true,high,false
x1Ds9kCs,3oplmf3ev80afezcyc4phujqmmslnu,3u8ycdagxttk8zlcgdfpcoiz1x60qp,x1Ds9kCs,2020-0188,2020-11-16,20:43:09,21:02:04,NA,incomplete,97,color,1,0,left,Red_Plus_Grid_3.jpg,Red_Triangle_Stripes_4.jpg,Purple_Star_Dots_3.jpg,right,620.6799999927171,false,high,false
x1Ds9kCs,3oplmf3ev80afezcyc4phujqmmslnu,3u8ycdagxttk8zlcgdfpcoiz1x60qp,x1Ds9kCs,2020-0188,2020-11-16,20:43:09,21:02:04,NA,incomplete,98,color,1,1,right,Green_Triangle_Chess_1.jpg,Blue_Plus_Dots_1.jpg,Green_Circle_Stripes_2.jpg,left,675.440000006347,false,high,false
x1Ds9kCs,3oplmf3ev80afezcyc4phujqmmslnu,3u8ycdagxttk8zlcgdfpcoiz1x60qp,x1Ds9kCs,2020-0188,2020-11-16,20:43:09,21:02:04,NA,incomplete,99,color,1,1,right,Blue_Plus_Stripes_2.jpg,Purple_Circle_Grid_2.jpg,Blue_Triangle_Dots_1.jpg,right,807.5749999989057,true,high,false
x1Ds9kCs,3oplmf3ev80afezcyc4phujqmmslnu,3u8ycdagxttk8zlcgdfpcoiz1x60qp,x1Ds9kCs,2020-0188,2020-11-16,20:43:09,21:02:04,NA,incomplete,100,number,0,1,left,Blue_Triangle_Grid_4.jpg,Red_Plus_Chess_4.jpg,Blue_Circle_Stripes_1.jpg,left,1074.7799999953713,true,high,false
x1Ds9kCs,3oplmf3ev80afezcyc4phujqmmslnu,3u8ycdagxttk8zlcgdfpcoiz1x60qp,x1Ds9kCs,2020-0188,2020-11-16,20:43:09,21:02:04,NA,incomplete,101,number,0,1,left,Red_Triangle_Dots_4.jpg,Green_Circle_Stripes_4.jpg,Red_Plus_Grid_2.jpg,right,624.9799999932293,false,high,false
x1Ds9kCs,3oplmf3ev80afezcyc4phujqmmslnu,3u8ycdagxttk8zlcgdfpcoiz1x60qp,x1Ds9kCs,2020-0188,2020-11-16,20:43:09,21:02:04,NA,incomplete,102,number,0,1,right,Blue_Star_Stripes_1.jpg,Blue_Circle_Chess_3.jpg,Purple_Plus_Dots_1.jpg,left,1072.0450000080746,false,high,false
x1Ds9kCs,3oplmf3ev80afezcyc4phujqmmslnu,3u8ycdagxttk8zlcgdfpcoiz1x60qp,x1Ds9kCs,2020-0188,2020-11-16,20:43:09,21:02:04,NA,incomplete,103,number,0,1,left,Red_Plus_Dots_3.jpg,Purple_Star_Grid_3.jpg,Red_Triangle_Stripes_1.jpg,right,635.00500000373,false,high,false
x1Ds9kCs,3oplmf3ev80afezcyc4phujqmmslnu,3u8ycdagxttk8zlcgdfpcoiz1x60qp,x1Ds9kCs,2020-0188,2020-11-16,20:43:09,21:02:04,NA,incomplete,104,number,0,1,right,Purple_Circle_Chess_3.jpg,Purple_Star_Stripes_4.jpg,Blue_Triangle_Grid_3.jpg,right,860.3149999980815,true,high,false
x1Ds9kCs,3oplmf3ev80afezcyc4phujqmmslnu,3u8ycdagxttk8zlcgdfpcoiz1x60qp,x1Ds9kCs,2020-0188,2020-11-16,20:43:09,21:02:04,NA,incomplete,105,number,0,1,left,Purple_Triangle_Grid_1.jpg,Blue_Circle_Chess_1.jpg,Purple_Star_Stripes_4.jpg,left,632.869999986724,true,high,false
x1Ds9kCs,3oplmf3ev80afezcyc4phujqmmslnu,3u8ycdagxttk8zlcgdfpcoiz1x60qp,x1Ds9kCs,2020-0188,2020-11-16,20:43:09,21:02:04,NA,incomplete,106,number,0,1,left,Green_Circle_Chess_4.jpg,Blue_Triangle_Grid_4.jpg,Green_Plus_Stripes_2.jpg,left,704.9200000037672,true,high,false
x1Ds9kCs,3oplmf3ev80afezcyc4phujqmmslnu,3u8ycdagxttk8zlcgdfpcoiz1x60qp,x1Ds9kCs,2020-0188,2020-11-16,20:43:09,21:02:04,NA,incomplete,107,number,0,1,left,Red_Circle_Dots_1.jpg,Green_Plus_Stripes_1.jpg,Red_Triangle_Chess_4.jpg,left,651.5249999938533,true,high,false
x1Ds9kCs,3oplmf3ev80afezcyc4phujqmmslnu,3u8ycdagxttk8zlcgdfpcoiz1x60qp,x1Ds9kCs,2020-0188,2020-11-16,20:43:09,21:02:04,NA,incomplete,108,number,0,1,right,Purple_Plus_Stripes_1.jpg,Purple_Circle_Dots_2.jpg,Green_Triangle_Chess_1.jpg,right,704.7450000100071,true,high,false
x1Ds9kCs,3oplmf3ev80afezcyc4phujqmmslnu,3u8ycdagxttk8zlcgdfpcoiz1x60qp,x1Ds9kCs,2020-0188,2020-11-16,20:43:09,21:02:04,NA,incomplete,109,number,0,1,right,Blue_Triangle_Stripes_4.jpg,Blue_Plus_Chess_3.jpg,Purple_Circle_Grid_4.jpg,right,1283.6950000055367,true,high,false
x1Ds9kCs,3oplmf3ev80afezcyc4phujqmmslnu,3u8ycdagxttk8zlcgdfpcoiz1x60qp,x1Ds9kCs,2020-0188,2020-11-16,20:43:09,21:02:04,NA,incomplete,110,color,1,1,right,Blue_Triangle_Dots_2.jpg,Purple_Circle_Stripes_2.jpg,Blue_Star_Grid_4.jpg,left,612.4399999971502,false,high,false
x1Ds9kCs,3oplmf3ev80afezcyc4phujqmmslnu,3u8ycdagxttk8zlcgdfpcoiz1x60qp,x1Ds9kCs,2020-0188,2020-11-16,20:43:09,21:02:04,NA,incomplete,111,color,1,1,right,Red_Plus_Dots_2.jpg,Green_Triangle_Chess_2.jpg,Red_Circle_Stripes_4.jpg,right,527.4349999963306,true,high,false
x1Ds9kCs,3oplmf3ev80afezcyc4phujqmmslnu,3u8ycdagxttk8zlcgdfpcoiz1x60qp,x1Ds9kCs,2020-0188,2020-11-16,20:43:09,21:02:04,NA,incomplete,112,color,1,1,right,Purple_Star_Stripes_3.jpg,Blue_Circle_Dots_3.jpg,Purple_Triangle_Grid_1.jpg,right,766.5949999936856,true,high,false
x1Ds9kCs,3oplmf3ev80afezcyc4phujqmmslnu,3u8ycdagxttk8zlcgdfpcoiz1x60qp,x1Ds9kCs,2020-0188,2020-11-16,20:43:09,21:02:04,NA,incomplete,113,color,1,0,left,Blue_Plus_Grid_4.jpg,Blue_Star_Stripes_1.jpg,Purple_Circle_Dots_4.jpg,left,748.7099999998463,true,high,false
x1Ds9kCs,3oplmf3ev80afezcyc4phujqmmslnu,3u8ycdagxttk8zlcgdfpcoiz1x60qp,x1Ds9kCs,2020-0188,2020-11-16,20:43:09,21:02:04,NA,incomplete,114,color,1,1,left,Purple_Triangle_Dots_2.jpg,Purple_Circle_Grid_4.jpg,Blue_Star_Chess_2.jpg,right,648.3500000031199,false,high,false
x1Ds9kCs,3oplmf3ev80afezcyc4phujqmmslnu,3u8ycdagxttk8zlcgdfpcoiz1x60qp,x1Ds9kCs,2020-0188,2020-11-16,20:43:09,21:02:04,NA,incomplete,115,color,1,0,left,Green_Circle_Chess_1.jpg,Green_Star_Stripes_4.jpg,Red_Plus_Grid_1.jpg,left,724.8950000066543,true,high,false
x1Ds9kCs,3oplmf3ev80afezcyc4phujqmmslnu,3u8ycdagxttk8zlcgdfpcoiz1x60qp,x1Ds9kCs,2020-0188,2020-11-16,20:43:09,21:02:04,NA,incomplete,116,color,1,1,right,Red_Star_Dots_3.jpg,Purple_Plus_Grid_3.jpg,Red_Circle_Chess_1.jpg,left,1027.7549999882467,false,high,false
x1Ds9kCs,3oplmf3ev80afezcyc4phujqmmslnu,3u8ycdagxttk8zlcgdfpcoiz1x60qp,x1Ds9kCs,2020-0188,2020-11-16,20:43:09,21:02:04,NA,incomplete,117,color,1,1,left,Blue_Star_Chess_3.jpg,Blue_Circle_Dots_2.jpg,Purple_Triangle_Grid_3.jpg,right,660.7099999964703,false,high,false
x1Ds9kCs,3oplmf3ev80afezcyc4phujqmmslnu,3u8ycdagxttk8zlcgdfpcoiz1x60qp,x1Ds9kCs,2020-0188,2020-11-16,20:43:09,21:02:04,NA,incomplete,118,color,1,1,left,Purple_Star_Grid_3.jpg,Purple_Circle_Stripes_1.jpg,Red_Triangle_Chess_3.jpg,left,1286.6900000080932,true,high,false
x1Ds9kCs,3oplmf3ev80afezcyc4phujqmmslnu,3u8ycdagxttk8zlcgdfpcoiz1x60qp,x1Ds9kCs,2020-0188,2020-11-16,20:43:09,21:02:04,NA,incomplete,119,color,1,1,right,Blue_Triangle_Stripes_1.jpg,Green_Plus_Chess_1.jpg,Blue_Circle_Dots_4.jpg,right,861.8549999955576,true,high,false
x1Ds9kCs,3oplmf3ev80afezcyc4phujqmmslnu,3u8ycdagxttk8zlcgdfpcoiz1x60qp,x1Ds9kCs,2020-0188,2020-11-16,20:43:09,21:02:04,NA,incomplete,120,gender,2,1,right,C_M_04.jpg,C_F_10.jpg,A_M_15.jpg,NA,NA,NA,high,false
x1Ds9kCs,3oplmf3ev80afezcyc4phujqmmslnu,3u8ycdagxttk8zlcgdfpcoiz1x60qp,x1Ds9kCs,2020-0188,2020-11-16,20:43:09,21:02:04,NA,incomplete,121,gender,2,1,left,A_F_04.jpg,C_F_08.jpg,A_M_06.jpg,left,1009.699999995064,true,high,false
x1Ds9kCs,3oplmf3ev80afezcyc4phujqmmslnu,3u8ycdagxttk8zlcgdfpcoiz1x60qp,x1Ds9kCs,2020-0188,2020-11-16,20:43:09,21:02:04,NA,incomplete,122,gender,2,1,right,C_F_03.jpg,C_M_15.jpg,A_F_08.jpg,right,937.644999998156,true,high,false
x1Ds9kCs,3oplmf3ev80afezcyc4phujqmmslnu,3u8ycdagxttk8zlcgdfpcoiz1x60qp,x1Ds9kCs,2020-0188,2020-11-16,20:43:09,21:02:04,NA,incomplete,123,gender,2,1,right,C_M_01.jpg,C_F_05.jpg,A_M_10.jpg,right,1256.150000001071,true,high,false
x1Ds9kCs,3oplmf3ev80afezcyc4phujqmmslnu,3u8ycdagxttk8zlcgdfpcoiz1x60qp,x1Ds9kCs,2020-0188,2020-11-16,20:43:09,21:02:04,NA,incomplete,124,gender,2,0,left,C_M_14.jpg,A_M_16.jpg,C_F_13.jpg,left,1351.2300000002142,true,high,false
x1Ds9kCs,3oplmf3ev80afezcyc4phujqmmslnu,3u8ycdagxttk8zlcgdfpcoiz1x60qp,x1Ds9kCs,2020-0188,2020-11-16,20:43:09,21:02:04,NA,incomplete,125,gender,2,1,right,A_F_14.jpg,A_M_16.jpg,C_F_10.jpg,left,871.6399999975692,false,high,false
x1Ds9kCs,3oplmf3ev80afezcyc4phujqmmslnu,3u8ycdagxttk8zlcgdfpcoiz1x60qp,x1Ds9kCs,2020-0188,2020-11-16,20:43:09,21:02:04,NA,incomplete,126,gender,2,1,left,A_F_06.jpg,C_F_05.jpg,A_M_02.jpg,left,910.7249999942724,true,high,false
x1Ds9kCs,3oplmf3ev80afezcyc4phujqmmslnu,3u8ycdagxttk8zlcgdfpcoiz1x60qp,x1Ds9kCs,2020-0188,2020-11-16,20:43:09,21:02:04,NA,incomplete,127,gender,2,1,left,A_M_03.jpg,C_M_09.jpg,A_F_15.jpg,left,812.7549999917392,true,high,false
x1Ds9kCs,3oplmf3ev80afezcyc4phujqmmslnu,3u8ycdagxttk8zlcgdfpcoiz1x60qp,x1Ds9kCs,2020-0188,2020-11-16,20:43:09,21:02:04,NA,incomplete,128,gender,2,1,left,C_F_04.jpg,A_F_15.jpg,C_M_12.jpg,left,929.4899999949848,true,high,false
x1Ds9kCs,3oplmf3ev80afezcyc4phujqmmslnu,3u8ycdagxttk8zlcgdfpcoiz1x60qp,x1Ds9kCs,2020-0188,2020-11-16,20:43:09,21:02:04,NA,incomplete,129,gender,2,1,left,C_M_07.jpg,A_M_09.jpg,C_F_01.jpg,left,819.5300000079442,true,high,false
x1Ds9kCs,3oplmf3ev80afezcyc4phujqmmslnu,3u8ycdagxttk8zlcgdfpcoiz1x60qp,x1Ds9kCs,2020-0188,2020-11-16,20:43:09,21:02:04,NA,incomplete,130,gender,2,1,left,A_F_16.jpg,C_F_09.jpg,A_M_10.jpg,left,995.7700000086334,true,high,false
x1Ds9kCs,3oplmf3ev80afezcyc4phujqmmslnu,3u8ycdagxttk8zlcgdfpcoiz1x60qp,x1Ds9kCs,2020-0188,2020-11-16,20:43:09,21:02:04,NA,incomplete,131,gender,2,1,right,A_F_04.jpg,A_M_05.jpg,C_F_11.jpg,left,473.32999999343883,false,high,false
x1Ds9kCs,3oplmf3ev80afezcyc4phujqmmslnu,3u8ycdagxttk8zlcgdfpcoiz1x60qp,x1Ds9kCs,2020-0188,2020-11-16,20:43:09,21:02:04,NA,incomplete,132,gender,2,0,left,C_F_05.jpg,A_F_04.jpg,C_M_06.jpg,left,646.3199999998324,true,high,false
x1Ds9kCs,3oplmf3ev80afezcyc4phujqmmslnu,3u8ycdagxttk8zlcgdfpcoiz1x60qp,x1Ds9kCs,2020-0188,2020-11-16,20:43:09,21:02:04,NA,incomplete,133,gender,2,1,left,C_M_15.jpg,A_M_13.jpg,C_F_10.jpg,right,1176.5599999926053,false,high,false
x1Ds9kCs,3oplmf3ev80afezcyc4phujqmmslnu,3u8ycdagxttk8zlcgdfpcoiz1x60qp,x1Ds9kCs,2020-0188,2020-11-16,20:43:09,21:02:04,NA,incomplete,134,gender,2,1,left,A_M_01.jpg,C_M_14.jpg,A_F_06.jpg,left,908.4850000072038,true,high,false
x1Ds9kCs,3oplmf3ev80afezcyc4phujqmmslnu,3u8ycdagxttk8zlcgdfpcoiz1x60qp,x1Ds9kCs,2020-0188,2020-11-16,20:43:09,21:02:04,NA,incomplete,135,gender,2,1,right,A_M_10.jpg,A_F_09.jpg,C_M_11.jpg,right,713.2550000096671,true,high,false
x1Ds9kCs,3oplmf3ev80afezcyc4phujqmmslnu,3u8ycdagxttk8zlcgdfpcoiz1x60qp,x1Ds9kCs,2020-0188,2020-11-16,20:43:09,21:02:04,NA,incomplete,136,gender,2,1,left,C_F_16.jpg,A_F_10.jpg,C_M_07.jpg,left,775.5049999977928,true,high,false
x1Ds9kCs,3oplmf3ev80afezcyc4phujqmmslnu,3u8ycdagxttk8zlcgdfpcoiz1x60qp,x1Ds9kCs,2020-0188,2020-11-16,20:43:09,21:02:04,NA,incomplete,137,gender,2,1,left,C_M_04.jpg,A_M_06.jpg,C_F_11.jpg,right,667.6600000064354,false,high,false
x1Ds9kCs,3oplmf3ev80afezcyc4phujqmmslnu,3u8ycdagxttk8zlcgdfpcoiz1x60qp,x1Ds9kCs,2020-0188,2020-11-16,20:43:09,21:02:04,NA,incomplete,138,gender,2,0,left,A_F_09.jpg,C_F_06.jpg,A_M_11.jpg,left,789.87499998766,true,high,false
x1Ds9kCs,3oplmf3ev80afezcyc4phujqmmslnu,3u8ycdagxttk8zlcgdfpcoiz1x60qp,x1Ds9kCs,2020-0188,2020-11-16,20:43:09,21:02:04,NA,incomplete,139,gender,2,1,left,C_F_01.jpg,A_F_03.jpg,C_M_13.jpg,left,1104.9050000001444,true,high,false
x1Ds9kCs,3oplmf3ev80afezcyc4phujqmmslnu,3u8ycdagxttk8zlcgdfpcoiz1x60qp,x1Ds9kCs,2020-0188,2020-11-16,20:43:09,21:02:04,NA,incomplete,140,race,3,0,left,A_M_07.jpg,A_F_01.jpg,C_M_13.jpg,right,752.89000000339,false,high,false
x1Ds9kCs,3oplmf3ev80afezcyc4phujqmmslnu,3u8ycdagxttk8zlcgdfpcoiz1x60qp,x1Ds9kCs,2020-0188,2020-11-16,20:43:09,21:02:04,NA,incomplete,141,race,3,1,left,C_F_13.jpg,C_M_06.jpg,A_F_16.jpg,right,794.1199999913806,false,high,false
x1Ds9kCs,3oplmf3ev80afezcyc4phujqmmslnu,3u8ycdagxttk8zlcgdfpcoiz1x60qp,x1Ds9kCs,2020-0188,2020-11-16,20:43:09,21:02:04,NA,incomplete,142,race,3,1,right,A_M_06.jpg,C_M_12.jpg,A_F_13.jpg,left,945.8900000026915,false,high,false
x1Ds9kCs,3oplmf3ev80afezcyc4phujqmmslnu,3u8ycdagxttk8zlcgdfpcoiz1x60qp,x1Ds9kCs,2020-0188,2020-11-16,20:43:09,21:02:04,NA,incomplete,143,race,3,1,left,A_M_11.jpg,A_F_01.jpg,C_M_08.jpg,right,1113.9899999980116,false,high,false
x1Ds9kCs,3oplmf3ev80afezcyc4phujqmmslnu,3u8ycdagxttk8zlcgdfpcoiz1x60qp,x1Ds9kCs,2020-0188,2020-11-16,20:43:09,21:02:04,NA,incomplete,144,race,3,0,right,A_F_11.jpg,C_F_09.jpg,A_M_15.jpg,right,939.5099999965169,true,high,false
x1Ds9kCs,3oplmf3ev80afezcyc4phujqmmslnu,3u8ycdagxttk8zlcgdfpcoiz1x60qp,x1Ds9kCs,2020-0188,2020-11-16,20:43:09,21:02:04,NA,incomplete,145,race,3,1,left,C_F_02.jpg,C_M_11.jpg,A_F_06.jpg,right,1041.1000000021886,false,high,false
x1Ds9kCs,3oplmf3ev80afezcyc4phujqmmslnu,3u8ycdagxttk8zlcgdfpcoiz1x60qp,x1Ds9kCs,2020-0188,2020-11-16,20:43:09,21:02:04,NA,incomplete,146,race,3,1,right,A_F_08.jpg,C_F_10.jpg,A_M_16.jpg,left,989.3999999912921,false,high,false
x1Ds9kCs,3oplmf3ev80afezcyc4phujqmmslnu,3u8ycdagxttk8zlcgdfpcoiz1x60qp,x1Ds9kCs,2020-0188,2020-11-16,20:43:09,21:02:04,NA,incomplete,147,race,3,1,right,C_F_10.jpg,A_F_12.jpg,C_M_03.jpg,left,754.8299999907613,false,high,false
x1Ds9kCs,3oplmf3ev80afezcyc4phujqmmslnu,3u8ycdagxttk8zlcgdfpcoiz1x60qp,x1Ds9kCs,2020-0188,2020-11-16,20:43:09,21:02:04,NA,incomplete,148,race,3,1,left,C_F_09.jpg,C_M_05.jpg,A_F_10.jpg,left,1068.215000006603,true,high,false
x1Ds9kCs,3oplmf3ev80afezcyc4phujqmmslnu,3u8ycdagxttk8zlcgdfpcoiz1x60qp,x1Ds9kCs,2020-0188,2020-11-16,20:43:09,21:02:04,NA,incomplete,149,race,3,1,right,A_F_14.jpg,C_F_09.jpg,A_M_16.jpg,right,1034.895000004326,true,high,false
x1Ds9kCs,3oplmf3ev80afezcyc4phujqmmslnu,3u8ycdagxttk8zlcgdfpcoiz1x60qp,x1Ds9kCs,2020-0188,2020-11-16,20:43:09,21:02:04,NA,incomplete,150,race,3,1,left,A_M_02.jpg,A_F_09.jpg,C_M_06.jpg,left,1333.0450000066776,true,high,false
x1Ds9kCs,3oplmf3ev80afezcyc4phujqmmslnu,3u8ycdagxttk8zlcgdfpcoiz1x60qp,x1Ds9kCs,2020-0188,2020-11-16,20:43:09,21:02:04,NA,incomplete,151,race,3,1,right,A_F_02.jpg,C_F_10.jpg,A_M_04.jpg,right,935.7900000031805,true,high,false
x1Ds9kCs,3oplmf3ev80afezcyc4phujqmmslnu,3u8ycdagxttk8zlcgdfpcoiz1x60qp,x1Ds9kCs,2020-0188,2020-11-16,20:43:09,21:02:04,NA,incomplete,152,race,3,1,left,C_F_04.jpg,C_M_02.jpg,A_F_12.jpg,left,1110.3000000002794,true,high,false
x1Ds9kCs,3oplmf3ev80afezcyc4phujqmmslnu,3u8ycdagxttk8zlcgdfpcoiz1x60qp,x1Ds9kCs,2020-0188,2020-11-16,20:43:09,21:02:04,NA,incomplete,153,race,3,1,right,A_F_10.jpg,C_F_07.jpg,A_M_15.jpg,right,878.6849999887636,true,high,false
x1Ds9kCs,3oplmf3ev80afezcyc4phujqmmslnu,3u8ycdagxttk8zlcgdfpcoiz1x60qp,x1Ds9kCs,2020-0188,2020-11-16,20:43:09,21:02:04,NA,incomplete,154,race,3,0,right,A_F_02.jpg,C_F_11.jpg,A_M_01.jpg,right,1007.3949999932665,true,high,false
x1Ds9kCs,3oplmf3ev80afezcyc4phujqmmslnu,3u8ycdagxttk8zlcgdfpcoiz1x60qp,x1Ds9kCs,2020-0188,2020-11-16,20:43:09,21:02:04,NA,incomplete,155,race,3,1,left,C_F_06.jpg,C_M_09.jpg,A_F_16.jpg,right,705.0550000130897,false,high,false
x1Ds9kCs,3oplmf3ev80afezcyc4phujqmmslnu,3u8ycdagxttk8zlcgdfpcoiz1x60qp,x1Ds9kCs,2020-0188,2020-11-16,20:43:09,21:02:04,NA,incomplete,156,race,3,0,left,C_M_04.jpg,C_F_13.jpg,A_M_15.jpg,left,995.8350000088103,true,high,false
x1Ds9kCs,3oplmf3ev80afezcyc4phujqmmslnu,3u8ycdagxttk8zlcgdfpcoiz1x60qp,x1Ds9kCs,2020-0188,2020-11-16,20:43:09,21:02:04,NA,incomplete,157,race,3,1,left,A_M_09.jpg,A_F_02.jpg,C_M_06.jpg,right,1045.7100000057835,false,high,false
x1Ds9kCs,3oplmf3ev80afezcyc4phujqmmslnu,3u8ycdagxttk8zlcgdfpcoiz1x60qp,x1Ds9kCs,2020-0188,2020-11-16,20:43:09,21:02:04,NA,incomplete,158,race,3,1,left,C_M_10.jpg,C_F_14.jpg,A_M_01.jpg,right,1452.610000007553,false,high,false
x1Ds9kCs,3oplmf3ev80afezcyc4phujqmmslnu,3u8ycdagxttk8zlcgdfpcoiz1x60qp,x1Ds9kCs,2020-0188,2020-11-16,20:43:09,21:02:04,NA,incomplete,159,race,3,1,right,A_F_06.jpg,C_F_12.jpg,A_M_13.jpg,left,1092.69000000495,false,high,false
x1Ds9kCs,3oplmf3ev80afezcyc4phujqmmslnu,3u8ycdagxttk8zlcgdfpcoiz1x60qp,x1Ds9kCs,2020-0188,2020-11-16,20:43:09,21:02:04,NA,incomplete,160,gender,2,0,left,A_F_08.jpg,C_F_10.jpg,A_M_16.jpg,left,211.03500000026543,true,high,false
x1Ds9kCs,3oplmf3ev80afezcyc4phujqmmslnu,3u8ycdagxttk8zlcgdfpcoiz1x60qp,x1Ds9kCs,2020-0188,2020-11-16,20:43:09,21:02:04,NA,incomplete,161,gender,2,1,right,C_M_11.jpg,C_F_16.jpg,A_M_08.jpg,right,769.1999999951804,true,high,false
x1Ds9kCs,3oplmf3ev80afezcyc4phujqmmslnu,3u8ycdagxttk8zlcgdfpcoiz1x60qp,x1Ds9kCs,2020-0188,2020-11-16,20:43:09,21:02:04,NA,incomplete,162,gender,2,1,left,C_F_05.jpg,A_F_12.jpg,C_M_04.jpg,left,700.5650000064634,true,high,false
x1Ds9kCs,3oplmf3ev80afezcyc4phujqmmslnu,3u8ycdagxttk8zlcgdfpcoiz1x60qp,x1Ds9kCs,2020-0188,2020-11-16,20:43:09,21:02:04,NA,incomplete,163,gender,2,1,left,A_M_05.jpg,C_M_07.jpg,A_F_02.jpg,left,696.7750000039814,true,high,false
x1Ds9kCs,3oplmf3ev80afezcyc4phujqmmslnu,3u8ycdagxttk8zlcgdfpcoiz1x60qp,x1Ds9kCs,2020-0188,2020-11-16,20:43:09,21:02:04,NA,incomplete,164,gender,2,1,left,A_M_01.jpg,C_M_03.jpg,A_F_12.jpg,left,595.8150000078604,true,high,false
x1Ds9kCs,3oplmf3ev80afezcyc4phujqmmslnu,3u8ycdagxttk8zlcgdfpcoiz1x60qp,x1Ds9kCs,2020-0188,2020-11-16,20:43:09,21:02:04,NA,incomplete,165,gender,2,0,right,C_M_08.jpg,C_F_15.jpg,A_M_12.jpg,right,754.2800000082934,true,high,false
x1Ds9kCs,3oplmf3ev80afezcyc4phujqmmslnu,3u8ycdagxttk8zlcgdfpcoiz1x60qp,x1Ds9kCs,2020-0188,2020-11-16,20:43:09,21:02:04,NA,incomplete,166,gender,2,1,right,C_M_04.jpg,C_F_16.jpg,A_M_07.jpg,left,828.3299999893643,false,high,false
x1Ds9kCs,3oplmf3ev80afezcyc4phujqmmslnu,3u8ycdagxttk8zlcgdfpcoiz1x60qp,x1Ds9kCs,2020-0188,2020-11-16,20:43:09,21:02:04,NA,incomplete,167,gender,2,0,left,C_F_03.jpg,A_F_14.jpg,C_M_11.jpg,right,1134.344999998575,false,high,false
x1Ds9kCs,3oplmf3ev80afezcyc4phujqmmslnu,3u8ycdagxttk8zlcgdfpcoiz1x60qp,x1Ds9kCs,2020-0188,2020-11-16,20:43:09,21:02:04,NA,incomplete,168,gender,2,1,right,C_F_11.jpg,C_M_10.jpg,A_F_14.jpg,left,1391.8799999955809,false,high,false
x1Ds9kCs,3oplmf3ev80afezcyc4phujqmmslnu,3u8ycdagxttk8zlcgdfpcoiz1x60qp,x1Ds9kCs,2020-0188,2020-11-16,20:43:09,21:02:04,NA,incomplete,169,gender,2,1,right,C_F_14.jpg,C_M_04.jpg,A_F_03.jpg,right,863.2999999972526,true,high,false
x1Ds9kCs,3oplmf3ev80afezcyc4phujqmmslnu,3u8ycdagxttk8zlcgdfpcoiz1x60qp,x1Ds9kCs,2020-0188,2020-11-16,20:43:09,21:02:04,NA,incomplete,170,gender,2,1,left,A_F_11.jpg,C_F_09.jpg,A_M_10.jpg,left,794.8400000022957,true,high,false
x1Ds9kCs,3oplmf3ev80afezcyc4phujqmmslnu,3u8ycdagxttk8zlcgdfpcoiz1x60qp,x1Ds9kCs,2020-0188,2020-11-16,20:43:09,21:02:04,NA,incomplete,171,gender,2,0,left,A_M_14.jpg,C_M_09.jpg,A_F_07.jpg,right,1379.5700000046054,false,high,false
x1Ds9kCs,3oplmf3ev80afezcyc4phujqmmslnu,3u8ycdagxttk8zlcgdfpcoiz1x60qp,x1Ds9kCs,2020-0188,2020-11-16,20:43:09,21:02:04,NA,incomplete,172,gender,2,1,left,A_M_01.jpg,C_M_04.jpg,A_F_07.jpg,left,906.25,true,high,false
x1Ds9kCs,3oplmf3ev80afezcyc4phujqmmslnu,3u8ycdagxttk8zlcgdfpcoiz1x60qp,x1Ds9kCs,2020-0188,2020-11-16,20:43:09,21:02:04,NA,incomplete,173,gender,2,1,right,A_F_02.jpg,A_M_12.jpg,C_F_15.jpg,right,754.6199999924283,true,high,false
x1Ds9kCs,3oplmf3ev80afezcyc4phujqmmslnu,3u8ycdagxttk8zlcgdfpcoiz1x60qp,x1Ds9kCs,2020-0188,2020-11-16,20:43:09,21:02:04,NA,incomplete,174,gender,2,0,right,C_F_06.jpg,C_M_12.jpg,A_F_07.jpg,right,838.0949999991572,true,high,false
x1Ds9kCs,3oplmf3ev80afezcyc4phujqmmslnu,3u8ycdagxttk8zlcgdfpcoiz1x60qp,x1Ds9kCs,2020-0188,2020-11-16,20:43:09,21:02:04,NA,incomplete,175,gender,2,1,left,C_M_03.jpg,A_M_11.jpg,C_F_12.jpg,left,1346.560000005411,true,high,false
x1Ds9kCs,3oplmf3ev80afezcyc4phujqmmslnu,3u8ycdagxttk8zlcgdfpcoiz1x60qp,x1Ds9kCs,2020-0188,2020-11-16,20:43:09,21:02:04,NA,incomplete,176,gender,2,0,left,A_F_14.jpg,C_F_13.jpg,A_M_03.jpg,left,928.1300000002375,true,high,false
x1Ds9kCs,3oplmf3ev80afezcyc4phujqmmslnu,3u8ycdagxttk8zlcgdfpcoiz1x60qp,x1Ds9kCs,2020-0188,2020-11-16,20:43:09,21:02:04,NA,incomplete,177,gender,2,1,right,A_M_11.jpg,A_F_06.jpg,C_M_05.jpg,right,1020.0699999986682,true,high,false
x1Ds9kCs,3oplmf3ev80afezcyc4phujqmmslnu,3u8ycdagxttk8zlcgdfpcoiz1x60qp,x1Ds9kCs,2020-0188,2020-11-16,20:43:09,21:02:04,NA,incomplete,178,gender,2,1,right,C_M_09.jpg,C_F_06.jpg,A_M_10.jpg,right,831.6800000029616,true,high,false
x1Ds9kCs,3oplmf3ev80afezcyc4phujqmmslnu,3u8ycdagxttk8zlcgdfpcoiz1x60qp,x1Ds9kCs,2020-0188,2020-11-16,20:43:09,21:02:04,NA,incomplete,179,gender,2,1,right,C_M_04.jpg,C_F_03.jpg,A_M_15.jpg,right,631.374999997206,true,high,false
x1Ds9kCs,3oplmf3ev80afezcyc4phujqmmslnu,3u8ycdagxttk8zlcgdfpcoiz1x60qp,x1Ds9kCs,2020-0188,2020-11-16,20:43:09,21:02:04,NA,incomplete,180,race,3,0,left,C_M_07.jpg,C_F_04.jpg,A_M_15.jpg,right,747.0650000032037,false,high,false
x1Ds9kCs,3oplmf3ev80afezcyc4phujqmmslnu,3u8ycdagxttk8zlcgdfpcoiz1x60qp,x1Ds9kCs,2020-0188,2020-11-16,20:43:09,21:02:04,NA,incomplete,181,race,3,1,right,A_M_06.jpg,C_M_10.jpg,A_F_12.jpg,left,692.4700000090525,false,high,false
x1Ds9kCs,3oplmf3ev80afezcyc4phujqmmslnu,3u8ycdagxttk8zlcgdfpcoiz1x60qp,x1Ds9kCs,2020-0188,2020-11-16,20:43:09,21:02:04,NA,incomplete,182,race,3,1,right,C_F_11.jpg,A_F_10.jpg,C_M_08.jpg,right,955.7949999871198,true,high,false
x1Ds9kCs,3oplmf3ev80afezcyc4phujqmmslnu,3u8ycdagxttk8zlcgdfpcoiz1x60qp,x1Ds9kCs,2020-0188,2020-11-16,20:43:09,21:02:04,NA,incomplete,183,race,3,1,left,C_M_16.jpg,C_F_06.jpg,A_M_03.jpg,left,922.32499999227,true,high,false
x1Ds9kCs,3oplmf3ev80afezcyc4phujqmmslnu,3u8ycdagxttk8zlcgdfpcoiz1x60qp,x1Ds9kCs,2020-0188,2020-11-16,20:43:09,21:02:04,NA,incomplete,184,race,3,1,right,C_M_15.jpg,A_M_04.jpg,C_F_09.jpg,right,1007.5550000037765,true,high,false
x1Ds9kCs,3oplmf3ev80afezcyc4phujqmmslnu,3u8ycdagxttk8zlcgdfpcoiz1x60qp,x1Ds9kCs,2020-0188,2020-11-16,20:43:09,21:02:04,NA,incomplete,185,race,3,0,right,C_F_01.jpg,A_F_12.jpg,C_M_06.jpg,right,914.7400000074413,true,high,false
x1Ds9kCs,3oplmf3ev80afezcyc4phujqmmslnu,3u8ycdagxttk8zlcgdfpcoiz1x60qp,x1Ds9kCs,2020-0188,2020-11-16,20:43:09,21:02:04,NA,incomplete,186,race,3,1,left,C_F_15.jpg,C_M_03.jpg,A_F_13.jpg,right,742.4549999996088,false,high,false
x1Ds9kCs,3oplmf3ev80afezcyc4phujqmmslnu,3u8ycdagxttk8zlcgdfpcoiz1x60qp,x1Ds9kCs,2020-0188,2020-11-16,20:43:09,21:02:04,NA,incomplete,187,race,3,1,left,C_M_12.jpg,C_F_02.jpg,A_M_15.jpg,left,1269.5200000016484,true,high,false
x1Ds9kCs,3oplmf3ev80afezcyc4phujqmmslnu,3u8ycdagxttk8zlcgdfpcoiz1x60qp,x1Ds9kCs,2020-0188,2020-11-16,20:43:09,21:02:04,NA,incomplete,188,race,3,0,left,A_F_02.jpg,A_M_06.jpg,C_F_01.jpg,left,735.3150000126334,true,high,false
x1Ds9kCs,3oplmf3ev80afezcyc4phujqmmslnu,3u8ycdagxttk8zlcgdfpcoiz1x60qp,x1Ds9kCs,2020-0188,2020-11-16,20:43:09,21:02:04,NA,incomplete,189,race,3,1,left,C_M_11.jpg,C_F_09.jpg,A_M_07.jpg,right,785.3249999898253,false,high,false
x1Ds9kCs,3oplmf3ev80afezcyc4phujqmmslnu,3u8ycdagxttk8zlcgdfpcoiz1x60qp,x1Ds9kCs,2020-0188,2020-11-16,20:43:09,21:02:04,NA,incomplete,190,race,3,1,left,A_F_14.jpg,A_M_11.jpg,C_F_13.jpg,left,1076.3000000006286,true,high,false
x1Ds9kCs,3oplmf3ev80afezcyc4phujqmmslnu,3u8ycdagxttk8zlcgdfpcoiz1x60qp,x1Ds9kCs,2020-0188,2020-11-16,20:43:09,21:02:04,NA,incomplete,191,race,3,1,right,C_M_02.jpg,A_M_15.jpg,C_F_11.jpg,right,1334.0750000061234,true,high,false
x1Ds9kCs,3oplmf3ev80afezcyc4phujqmmslnu,3u8ycdagxttk8zlcgdfpcoiz1x60qp,x1Ds9kCs,2020-0188,2020-11-16,20:43:09,21:02:04,NA,incomplete,192,race,3,1,left,C_M_02.jpg,C_F_08.jpg,A_M_13.jpg,left,1034.7449999972014,true,high,false
x1Ds9kCs,3oplmf3ev80afezcyc4phujqmmslnu,3u8ycdagxttk8zlcgdfpcoiz1x60qp,x1Ds9kCs,2020-0188,2020-11-16,20:43:09,21:02:04,NA,incomplete,193,race,3,1,right,C_M_14.jpg,A_M_02.jpg,C_F_16.jpg,right,750.2300000051036,true,high,false
x1Ds9kCs,3oplmf3ev80afezcyc4phujqmmslnu,3u8ycdagxttk8zlcgdfpcoiz1x60qp,x1Ds9kCs,2020-0188,2020-11-16,20:43:09,21:02:04,NA,incomplete,194,race,3,0,right,C_M_01.jpg,A_M_08.jpg,C_F_03.jpg,right,996.964999998454,true,high,false
x1Ds9kCs,3oplmf3ev80afezcyc4phujqmmslnu,3u8ycdagxttk8zlcgdfpcoiz1x60qp,x1Ds9kCs,2020-0188,2020-11-16,20:43:09,21:02:04,NA,incomplete,195,race,3,1,left,A_F_12.jpg,A_M_10.jpg,C_F_16.jpg,right,1021.9800000049872,false,high,false
x1Ds9kCs,3oplmf3ev80afezcyc4phujqmmslnu,3u8ycdagxttk8zlcgdfpcoiz1x60qp,x1Ds9kCs,2020-0188,2020-11-16,20:43:09,21:02:04,NA,incomplete,196,race,3,1,left,A_F_05.jpg,A_M_06.jpg,C_F_16.jpg,left,862.3549999902025,true,high,false
x1Ds9kCs,3oplmf3ev80afezcyc4phujqmmslnu,3u8ycdagxttk8zlcgdfpcoiz1x60qp,x1Ds9kCs,2020-0188,2020-11-16,20:43:09,21:02:04,NA,incomplete,197,race,3,1,left,C_F_12.jpg,C_M_13.jpg,A_F_04.jpg,left,889.6799999929499,true,high,false
x1Ds9kCs,3oplmf3ev80afezcyc4phujqmmslnu,3u8ycdagxttk8zlcgdfpcoiz1x60qp,x1Ds9kCs,2020-0188,2020-11-16,20:43:09,21:02:04,NA,incomplete,198,race,3,1,right,A_M_11.jpg,C_M_10.jpg,A_F_07.jpg,right,834.1349999973318,true,high,false
x1Ds9kCs,3oplmf3ev80afezcyc4phujqmmslnu,3u8ycdagxttk8zlcgdfpcoiz1x60qp,x1Ds9kCs,2020-0188,2020-11-16,20:43:09,21:02:04,NA,incomplete,199,race,3,0,left,A_M_08.jpg,A_F_15.jpg,C_M_04.jpg,left,781.1799999908544,true,high,false
x1Ds9kCs,3oplmf3ev80afezcyc4phujqmmslnu,3u8ycdagxttk8zlcgdfpcoiz1x60qp,x1Ds9kCs,2020-0188,2020-11-16,20:43:09,21:02:04,NA,incomplete,200,gender,2,1,right,C_M_09.jpg,C_F_08.jpg,A_M_01.jpg,left,971.0699999995995,false,high,false
x1Ds9kCs,3oplmf3ev80afezcyc4phujqmmslnu,3u8ycdagxttk8zlcgdfpcoiz1x60qp,x1Ds9kCs,2020-0188,2020-11-16,20:43:09,21:02:04,NA,incomplete,201,gender,2,0,left,A_M_11.jpg,C_M_06.jpg,A_F_01.jpg,left,945.7899999979418,true,high,false
x1Ds9kCs,3oplmf3ev80afezcyc4phujqmmslnu,3u8ycdagxttk8zlcgdfpcoiz1x60qp,x1Ds9kCs,2020-0188,2020-11-16,20:43:09,21:02:04,NA,incomplete,202,gender,2,1,left,A_M_08.jpg,C_M_03.jpg,A_F_01.jpg,right,1462.100000004284,false,high,false
x1Ds9kCs,3oplmf3ev80afezcyc4phujqmmslnu,3u8ycdagxttk8zlcgdfpcoiz1x60qp,x1Ds9kCs,2020-0188,2020-11-16,20:43:09,21:02:04,NA,incomplete,203,gender,2,1,left,C_F_01.jpg,A_F_09.jpg,C_M_08.jpg,left,1100.6150000030175,true,high,false
x1Ds9kCs,3oplmf3ev80afezcyc4phujqmmslnu,3u8ycdagxttk8zlcgdfpcoiz1x60qp,x1Ds9kCs,2020-0188,2020-11-16,20:43:09,21:02:04,NA,incomplete,204,gender,2,0,right,C_F_03.jpg,C_M_08.jpg,A_F_05.jpg,right,637.0200000092154,true,high,false
x1Ds9kCs,3oplmf3ev80afezcyc4phujqmmslnu,3u8ycdagxttk8zlcgdfpcoiz1x60qp,x1Ds9kCs,2020-0188,2020-11-16,20:43:09,21:02:04,NA,incomplete,205,gender,2,1,left,C_M_09.jpg,A_M_14.jpg,C_F_12.jpg,right,1027.8699999907985,false,high,false
x1Ds9kCs,3oplmf3ev80afezcyc4phujqmmslnu,3u8ycdagxttk8zlcgdfpcoiz1x60qp,x1Ds9kCs,2020-0188,2020-11-16,20:43:09,21:02:04,NA,incomplete,206,gender,2,1,left,A_M_16.jpg,C_M_12.jpg,A_F_14.jpg,left,1399.7850000014296,true,high,false
x1Ds9kCs,3oplmf3ev80afezcyc4phujqmmslnu,3u8ycdagxttk8zlcgdfpcoiz1x60qp,x1Ds9kCs,2020-0188,2020-11-16,20:43:09,21:02:04,NA,incomplete,207,gender,2,0,right,C_M_10.jpg,C_F_05.jpg,A_M_01.jpg,right,1049.8249999945983,true,high,false
x1Ds9kCs,3oplmf3ev80afezcyc4phujqmmslnu,3u8ycdagxttk8zlcgdfpcoiz1x60qp,x1Ds9kCs,2020-0188,2020-11-16,20:43:09,21:02:04,NA,incomplete,208,gender,2,1,left,C_F_16.jpg,A_F_04.jpg,C_M_08.jpg,left,1101.9850000011502,true,high,false
x1Ds9kCs,3oplmf3ev80afezcyc4phujqmmslnu,3u8ycdagxttk8zlcgdfpcoiz1x60qp,x1Ds9kCs,2020-0188,2020-11-16,20:43:09,21:02:04,NA,incomplete,209,gender,2,0,right,C_F_13.jpg,C_M_02.jpg,A_F_10.jpg,right,709.5049999916228,true,high,false
x1Ds9kCs,3oplmf3ev80afezcyc4phujqmmslnu,3u8ycdagxttk8zlcgdfpcoiz1x60qp,x1Ds9kCs,2020-0188,2020-11-16,20:43:09,21:02:04,NA,incomplete,210,gender,2,1,left,A_F_15.jpg,C_F_13.jpg,A_M_10.jpg,left,688.399999999092,true,high,false
x1Ds9kCs,3oplmf3ev80afezcyc4phujqmmslnu,3u8ycdagxttk8zlcgdfpcoiz1x60qp,x1Ds9kCs,2020-0188,2020-11-16,20:43:09,21:02:04,NA,incomplete,211,gender,2,1,left,C_M_05.jpg,A_M_02.jpg,C_F_11.jpg,left,890.0250000006054,true,high,false
x1Ds9kCs,3oplmf3ev80afezcyc4phujqmmslnu,3u8ycdagxttk8zlcgdfpcoiz1x60qp,x1Ds9kCs,2020-0188,2020-11-16,20:43:09,21:02:04,NA,incomplete,212,gender,2,1,left,C_F_03.jpg,A_F_07.jpg,C_M_08.jpg,left,992.7100000058999,true,high,false
x1Ds9kCs,3oplmf3ev80afezcyc4phujqmmslnu,3u8ycdagxttk8zlcgdfpcoiz1x60qp,x1Ds9kCs,2020-0188,2020-11-16,20:43:09,21:02:04,NA,incomplete,213,gender,2,1,right,C_F_13.jpg,C_M_08.jpg,A_F_16.jpg,right,721.7649999947753,true,high,false
x1Ds9kCs,3oplmf3ev80afezcyc4phujqmmslnu,3u8ycdagxttk8zlcgdfpcoiz1x60qp,x1Ds9kCs,2020-0188,2020-11-16,20:43:09,21:02:04,NA,incomplete,214,gender,2,1,left,C_M_07.jpg,A_M_02.jpg,C_F_09.jpg,left,798.4299999952782,true,high,false
x1Ds9kCs,3oplmf3ev80afezcyc4phujqmmslnu,3u8ycdagxttk8zlcgdfpcoiz1x60qp,x1Ds9kCs,2020-0188,2020-11-16,20:43:09,21:02:04,NA,incomplete,215,gender,2,0,left,C_F_12.jpg,A_F_09.jpg,C_M_11.jpg,left,889.7500000020955,true,high,false
x1Ds9kCs,3oplmf3ev80afezcyc4phujqmmslnu,3u8ycdagxttk8zlcgdfpcoiz1x60qp,x1Ds9kCs,2020-0188,2020-11-16,20:43:09,21:02:04,NA,incomplete,216,gender,2,1,right,A_F_13.jpg,A_M_04.jpg,C_F_09.jpg,right,669.8249999899417,true,high,false
x1Ds9kCs,3oplmf3ev80afezcyc4phujqmmslnu,3u8ycdagxttk8zlcgdfpcoiz1x60qp,x1Ds9kCs,2020-0188,2020-11-16,20:43:09,21:02:04,NA,incomplete,217,gender,2,1,right,A_F_03.jpg,A_M_15.jpg,C_F_10.jpg,right,720.7599999965169,true,high,false
x1Ds9kCs,3oplmf3ev80afezcyc4phujqmmslnu,3u8ycdagxttk8zlcgdfpcoiz1x60qp,x1Ds9kCs,2020-0188,2020-11-16,20:43:09,21:02:04,NA,incomplete,218,gender,2,1,left,C_F_12.jpg,A_F_16.jpg,C_M_01.jpg,left,923.7250000005588,true,high,false
x1Ds9kCs,3oplmf3ev80afezcyc4phujqmmslnu,3u8ycdagxttk8zlcgdfpcoiz1x60qp,x1Ds9kCs,2020-0188,2020-11-16,20:43:09,21:02:04,NA,incomplete,219,gender,2,1,right,A_M_02.jpg,A_F_10.jpg,C_M_09.jpg,right,952.2049999942537,true,high,false
x1Ds9kCs,3oplmf3ev80afezcyc4phujqmmslnu,3u8ycdagxttk8zlcgdfpcoiz1x60qp,x1Ds9kCs,2020-0188,2020-11-16,20:43:09,21:02:04,NA,incomplete,220,race,3,1,right,A_F_14.jpg,C_F_15.jpg,A_M_04.jpg,left,780.8400000068359,false,high,false
x1Ds9kCs,3oplmf3ev80afezcyc4phujqmmslnu,3u8ycdagxttk8zlcgdfpcoiz1x60qp,x1Ds9kCs,2020-0188,2020-11-16,20:43:09,21:02:04,NA,incomplete,221,race,3,1,left,C_F_06.jpg,C_M_11.jpg,A_F_02.jpg,right,801.9400000050664,false,high,false
x1Ds9kCs,3oplmf3ev80afezcyc4phujqmmslnu,3u8ycdagxttk8zlcgdfpcoiz1x60qp,x1Ds9kCs,2020-0188,2020-11-16,20:43:09,21:02:04,NA,incomplete,222,race,3,1,right,A_F_16.jpg,C_F_07.jpg,A_M_10.jpg,left,690.3949999976903,false,high,false
x1Ds9kCs,3oplmf3ev80afezcyc4phujqmmslnu,3u8ycdagxttk8zlcgdfpcoiz1x60qp,x1Ds9kCs,2020-0188,2020-11-16,20:43:09,21:02:04,NA,incomplete,223,race,3,1,left,C_F_08.jpg,C_M_03.jpg,A_F_10.jpg,left,876.7200000002049,true,high,false
x1Ds9kCs,3oplmf3ev80afezcyc4phujqmmslnu,3u8ycdagxttk8zlcgdfpcoiz1x60qp,x1Ds9kCs,2020-0188,2020-11-16,20:43:09,21:02:04,NA,incomplete,224,race,3,1,right,A_M_08.jpg,C_M_14.jpg,A_F_02.jpg,right,658.4500000027474,true,high,false
x1Ds9kCs,3oplmf3ev80afezcyc4phujqmmslnu,3u8ycdagxttk8zlcgdfpcoiz1x60qp,x1Ds9kCs,2020-0188,2020-11-16,20:43:09,21:02:04,NA,incomplete,225,race,3,1,right,C_M_10.jpg,A_M_03.jpg,C_F_16.jpg,left,643.5000000055879,false,high,false
x1Ds9kCs,3oplmf3ev80afezcyc4phujqmmslnu,3u8ycdagxttk8zlcgdfpcoiz1x60qp,x1Ds9kCs,2020-0188,2020-11-16,20:43:09,21:02:04,NA,incomplete,226,race,3,1,left,A_F_15.jpg,A_M_16.jpg,C_F_01.jpg,left,886.0850000055507,true,high,false
x1Ds9kCs,3oplmf3ev80afezcyc4phujqmmslnu,3u8ycdagxttk8zlcgdfpcoiz1x60qp,x1Ds9kCs,2020-0188,2020-11-16,20:43:09,21:02:04,NA,incomplete,227,race,3,1,left,A_M_03.jpg,A_F_04.jpg,C_M_01.jpg,left,866.5550000004005,true,high,false
x1Ds9kCs,3oplmf3ev80afezcyc4phujqmmslnu,3u8ycdagxttk8zlcgdfpcoiz1x60qp,x1Ds9kCs,2020-0188,2020-11-16,20:43:09,21:02:04,NA,incomplete,228,race,3,1,right,C_M_14.jpg,A_M_03.jpg,C_F_07.jpg,right,1046.5699999912176,true,high,false
x1Ds9kCs,3oplmf3ev80afezcyc4phujqmmslnu,3u8ycdagxttk8zlcgdfpcoiz1x60qp,x1Ds9kCs,2020-0188,2020-11-16,20:43:09,21:02:04,NA,incomplete,229,race,3,1,right,A_M_08.jpg,C_M_10.jpg,A_F_15.jpg,right,875.8099999977276,true,high,false
x1Ds9kCs,3oplmf3ev80afezcyc4phujqmmslnu,3u8ycdagxttk8zlcgdfpcoiz1x60qp,x1Ds9kCs,2020-0188,2020-11-16,20:43:09,21:02:04,NA,incomplete,230,race,3,0,right,C_F_07.jpg,A_F_02.jpg,C_M_01.jpg,right,1113.989999998128,true,high,false
x1Ds9kCs,3oplmf3ev80afezcyc4phujqmmslnu,3u8ycdagxttk8zlcgdfpcoiz1x60qp,x1Ds9kCs,2020-0188,2020-11-16,20:43:09,21:02:04,NA,incomplete,231,race,3,1,right,C_M_07.jpg,A_M_08.jpg,C_F_06.jpg,right,936.5450000041164,true,high,false
x1Ds9kCs,3oplmf3ev80afezcyc4phujqmmslnu,3u8ycdagxttk8zlcgdfpcoiz1x60qp,x1Ds9kCs,2020-0188,2020-11-16,20:43:09,21:02:04,NA,incomplete,232,race,3,1,left,A_F_03.jpg,A_M_04.jpg,C_F_06.jpg,left,787.7399999997579,true,high,false
x1Ds9kCs,3oplmf3ev80afezcyc4phujqmmslnu,3u8ycdagxttk8zlcgdfpcoiz1x60qp,x1Ds9kCs,2020-0188,2020-11-16,20:43:09,21:02:04,NA,incomplete,233,race,3,1,right,C_F_03.jpg,A_F_15.jpg,C_M_14.jpg,right,873.1299999926705,true,high,false
x1Ds9kCs,3oplmf3ev80afezcyc4phujqmmslnu,3u8ycdagxttk8zlcgdfpcoiz1x60qp,x1Ds9kCs,2020-0188,2020-11-16,20:43:09,21:02:04,NA,incomplete,234,race,3,1,right,C_M_14.jpg,A_M_02.jpg,C_F_16.jpg,right,848.6999999878462,true,high,false
x1Ds9kCs,3oplmf3ev80afezcyc4phujqmmslnu,3u8ycdagxttk8zlcgdfpcoiz1x60qp,x1Ds9kCs,2020-0188,2020-11-16,20:43:09,21:02:04,NA,incomplete,235,race,3,1,right,C_M_08.jpg,A_M_05.jpg,C_F_06.jpg,left,857.2850000052713,false,high,false
x1Ds9kCs,3oplmf3ev80afezcyc4phujqmmslnu,3u8ycdagxttk8zlcgdfpcoiz1x60qp,x1Ds9kCs,2020-0188,2020-11-16,20:43:09,21:02:04,NA,incomplete,236,race,3,1,right,A_M_16.jpg,C_M_04.jpg,A_F_12.jpg,right,1626.6450000111945,true,high,false
x1Ds9kCs,3oplmf3ev80afezcyc4phujqmmslnu,3u8ycdagxttk8zlcgdfpcoiz1x60qp,x1Ds9kCs,2020-0188,2020-11-16,20:43:09,21:02:04,NA,incomplete,237,race,3,1,right,A_M_05.jpg,C_M_16.jpg,A_F_08.jpg,right,1016.7899999942165,true,high,false
x1Ds9kCs,3oplmf3ev80afezcyc4phujqmmslnu,3u8ycdagxttk8zlcgdfpcoiz1x60qp,x1Ds9kCs,2020-0188,2020-11-16,20:43:09,21:02:04,NA,incomplete,238,race,3,1,left,A_M_08.jpg,A_F_01.jpg,C_M_03.jpg,left,840.51500000339,true,high,false
x1Ds9kCs,3oplmf3ev80afezcyc4phujqmmslnu,3u8ycdagxttk8zlcgdfpcoiz1x60qp,x1Ds9kCs,2020-0188,2020-11-16,20:43:09,21:02:04,NA,incomplete,239,race,3,1,right,A_M_02.jpg,C_M_10.jpg,A_F_03.jpg,right,824.9150000046939,true,high,false
x1Ds9kCs,3oplmf3ev80afezcyc4phujqmmslnu,3u8ycdagxttk8zlcgdfpcoiz1x60qp,x1Ds9kCs,2020-0188,2020-11-16,20:43:09,21:02:04,NA,NA,instruction example,number,NA,NA,NA,Red_Plus_Dots_2.jpg,Purple_Triangle_Chess_2.jpg,Red_Circle_Stripes_1.jpg,NA,NA,NA,NA,undefined
x1Ds9kCs,3oplmf3ev80afezcyc4phujqmmslnu,3u8ycdagxttk8zlcgdfpcoiz1x60qp,x1Ds9kCs,2020-0188,2020-11-16,20:43:09,21:02:04,NA,NA,instruction example,number,NA,NA,NA,Green_Star_Dots_2.jpg,Green_Plus_Chess_3.jpg,Purple_Triangle_Grid_2.jpg,NA,NA,NA,NA,undefined
x1Ds9kCs,3oplmf3ev80afezcyc4phujqmmslnu,3u8ycdagxttk8zlcgdfpcoiz1x60qp,x1Ds9kCs,2020-0188,2020-11-16,20:43:09,21:02:04,NA,NA,instruction example,number,NA,NA,NA,A_F_03.jpg,C_F_10.jpg,A_M_08.jpg,NA,NA,NA,NA,undefined
x1Ds9kCs,3oplmf3ev80afezcyc4phujqmmslnu,3u8ycdagxttk8zlcgdfpcoiz1x60qp,x1Ds9kCs,2020-0188,2020-11-16,20:43:09,21:02:04,NA,NA,instruction example,number,NA,NA,NA,A_M_08.jpg,A_F_12.jpg,C_M_02.jpg,NA,NA,NA,NA,undefined
