workerId,hitId,assignmentId,subject,studyid,exp_date,exp_start,exp_end,time_start,time_end,trial,type,sequence,reward_validity,answer,image_top,image_left,image_right,response,response_time,response_acc,volatility,age,race,gender,ethnicity,color,vision,neuro,practice
FkLwAkkf,3atyli1pswfm29bow6spg463876ojo,3x08e93bhzvmcso73th8fkbze2166q,FkLwAkkf,2020-0188,2020-11-17,15:01:05,15:25:33,NA,incomplete,0,shape,0,1,left,Red_Plus_Grid_3.jpg,Blue_Plus_Chess_2.jpg,Red_Triangle_Stripes_4.jpg,left,1833.7449999817181,true,NA,NA,NA,NA,NA,NA,NA,NA,true
FkLwAkkf,3atyli1pswfm29bow6spg463876ojo,3x08e93bhzvmcso73th8fkbze2166q,FkLwAkkf,2020-0188,2020-11-17,15:01:05,15:25:33,NA,incomplete,1,shape,0,0,right,Red_Star_Stripes_3.jpg,Red_Plus_Dots_2.jpg,Purple_Star_Grid_1.jpg,right,1373.2550000131596,true,NA,NA,NA,NA,NA,NA,NA,NA,true
FkLwAkkf,3atyli1pswfm29bow6spg463876ojo,3x08e93bhzvmcso73th8fkbze2166q,FkLwAkkf,2020-0188,2020-11-17,15:01:05,15:25:33,NA,incomplete,2,shape,0,1,left,Blue_Circle_Chess_4.jpg,Red_Circle_Dots_3.jpg,Blue_Star_Grid_2.jpg,left,1083.5000000079162,true,NA,NA,NA,NA,NA,NA,NA,NA,true
FkLwAkkf,3atyli1pswfm29bow6spg463876ojo,3x08e93bhzvmcso73th8fkbze2166q,FkLwAkkf,2020-0188,2020-11-17,15:01:05,15:25:33,NA,incomplete,3,shape,0,0,right,Red_Circle_Dots_3.jpg,Red_Star_Grid_2.jpg,Purple_Circle_Stripes_1.jpg,right,905.1150000013877,true,NA,NA,NA,NA,NA,NA,NA,NA,true
FkLwAkkf,3atyli1pswfm29bow6spg463876ojo,3x08e93bhzvmcso73th8fkbze2166q,FkLwAkkf,2020-0188,2020-11-17,15:01:05,15:25:33,NA,incomplete,4,shape,0,1,right,Red_Circle_Dots_3.jpg,Red_Star_Chess_1.jpg,Blue_Circle_Grid_4.jpg,right,947.5500000116881,true,NA,NA,NA,NA,NA,NA,NA,NA,true
FkLwAkkf,3atyli1pswfm29bow6spg463876ojo,3x08e93bhzvmcso73th8fkbze2166q,FkLwAkkf,2020-0188,2020-11-17,15:01:05,15:25:33,NA,incomplete,5,shape,0,0,left,Purple_Triangle_Dots_1.jpg,Green_Triangle_Chess_4.jpg,Purple_Star_Grid_2.jpg,left,1027.8800000087358,true,NA,NA,NA,NA,NA,NA,NA,NA,true
FkLwAkkf,3atyli1pswfm29bow6spg463876ojo,3x08e93bhzvmcso73th8fkbze2166q,FkLwAkkf,2020-0188,2020-11-17,15:01:05,15:25:33,NA,incomplete,6,shape,0,1,left,Purple_Circle_Grid_3.jpg,Green_Circle_Chess_2.jpg,Purple_Plus_Dots_1.jpg,left,901.7149999854155,true,NA,NA,NA,NA,NA,NA,NA,NA,true
FkLwAkkf,3atyli1pswfm29bow6spg463876ojo,3x08e93bhzvmcso73th8fkbze2166q,FkLwAkkf,2020-0188,2020-11-17,15:01:05,15:25:33,NA,incomplete,7,shape,0,1,right,Purple_Plus_Chess_3.jpg,Purple_Triangle_Grid_4.jpg,Blue_Plus_Dots_2.jpg,right,1042.0600000070408,true,NA,NA,NA,NA,NA,NA,NA,NA,true
FkLwAkkf,3atyli1pswfm29bow6spg463876ojo,3x08e93bhzvmcso73th8fkbze2166q,FkLwAkkf,2020-0188,2020-11-17,15:01:05,15:25:33,NA,incomplete,8,shape,0,1,left,Red_Plus_Dots_2.jpg,Green_Plus_Grid_3.jpg,Red_Star_Chess_1.jpg,left,854.6100000094157,true,NA,NA,NA,NA,NA,NA,NA,NA,true
FkLwAkkf,3atyli1pswfm29bow6spg463876ojo,3x08e93bhzvmcso73th8fkbze2166q,FkLwAkkf,2020-0188,2020-11-17,15:01:05,15:25:33,NA,incomplete,9,shape,0,0,right,Purple_Plus_Dots_2.jpg,Purple_Triangle_Stripes_4.jpg,Blue_Plus_Chess_1.jpg,right,963.9249999891035,true,NA,NA,NA,NA,NA,NA,NA,NA,true
FkLwAkkf,3atyli1pswfm29bow6spg463876ojo,3x08e93bhzvmcso73th8fkbze2166q,FkLwAkkf,2020-0188,2020-11-17,15:01:05,15:25:33,NA,incomplete,10,shape,0,1,right,Purple_Star_Dots_2.jpg,Purple_Plus_Stripes_1.jpg,Green_Star_Chess_4.jpg,left,953.5949999990407,false,NA,NA,NA,NA,NA,NA,NA,NA,true
FkLwAkkf,3atyli1pswfm29bow6spg463876ojo,3x08e93bhzvmcso73th8fkbze2166q,FkLwAkkf,2020-0188,2020-11-17,15:01:05,15:25:33,NA,incomplete,11,shape,0,1,right,Green_Circle_Chess_1.jpg,Green_Star_Dots_2.jpg,Purple_Circle_Stripes_3.jpg,right,712.7850000106264,true,NA,NA,NA,NA,NA,NA,NA,NA,true
FkLwAkkf,3atyli1pswfm29bow6spg463876ojo,3x08e93bhzvmcso73th8fkbze2166q,FkLwAkkf,2020-0188,2020-11-17,15:01:05,15:25:33,NA,incomplete,12,shape,0,1,right,Green_Plus_Grid_4.jpg,Green_Circle_Dots_1.jpg,Purple_Plus_Stripes_2.jpg,right,790.4600000183564,true,NA,NA,NA,NA,NA,NA,NA,NA,true
FkLwAkkf,3atyli1pswfm29bow6spg463876ojo,3x08e93bhzvmcso73th8fkbze2166q,FkLwAkkf,2020-0188,2020-11-17,15:01:05,15:25:33,NA,incomplete,13,shape,0,1,right,Purple_Triangle_Chess_3.jpg,Purple_Star_Stripes_4.jpg,Blue_Triangle_Grid_1.jpg,right,837.5250000099186,true,NA,NA,NA,NA,NA,NA,NA,NA,true
FkLwAkkf,3atyli1pswfm29bow6spg463876ojo,3x08e93bhzvmcso73th8fkbze2166q,FkLwAkkf,2020-0188,2020-11-17,15:01:05,15:25:33,NA,incomplete,14,shape,0,1,right,Purple_Circle_Chess_4.jpg,Purple_Plus_Stripes_3.jpg,Blue_Circle_Dots_2.jpg,right,840.635000000475,true,NA,NA,NA,NA,NA,NA,NA,NA,true
FkLwAkkf,3atyli1pswfm29bow6spg463876ojo,3x08e93bhzvmcso73th8fkbze2166q,FkLwAkkf,2020-0188,2020-11-17,15:01:05,15:25:33,NA,incomplete,15,shape,0,1,right,Red_Triangle_Grid_4.jpg,Red_Plus_Chess_2.jpg,Green_Triangle_Stripes_3.jpg,right,782.9750000091735,true,NA,NA,NA,NA,NA,NA,NA,NA,true
FkLwAkkf,3atyli1pswfm29bow6spg463876ojo,3x08e93bhzvmcso73th8fkbze2166q,FkLwAkkf,2020-0188,2020-11-17,15:01:05,15:25:33,NA,incomplete,16,shape,0,1,right,Green_Circle_Dots_2.jpg,Green_Star_Grid_1.jpg,Blue_Circle_Stripes_3.jpg,right,728.2699999923352,true,NA,NA,NA,NA,NA,NA,NA,NA,true
FkLwAkkf,3atyli1pswfm29bow6spg463876ojo,3x08e93bhzvmcso73th8fkbze2166q,FkLwAkkf,2020-0188,2020-11-17,15:01:05,15:25:33,NA,incomplete,17,shape,0,1,left,Purple_Circle_Stripes_3.jpg,Green_Circle_Chess_2.jpg,Purple_Plus_Dots_4.jpg,left,834.6899999887682,true,NA,NA,NA,NA,NA,NA,NA,NA,true
FkLwAkkf,3atyli1pswfm29bow6spg463876ojo,3x08e93bhzvmcso73th8fkbze2166q,FkLwAkkf,2020-0188,2020-11-17,15:01:05,15:25:33,NA,incomplete,18,shape,0,1,left,Red_Circle_Grid_3.jpg,Blue_Circle_Stripes_4.jpg,Red_Triangle_Chess_2.jpg,left,772.434999991674,true,NA,NA,NA,NA,NA,NA,NA,NA,true
FkLwAkkf,3atyli1pswfm29bow6spg463876ojo,3x08e93bhzvmcso73th8fkbze2166q,FkLwAkkf,2020-0188,2020-11-17,15:01:05,15:25:33,NA,incomplete,19,shape,0,1,right,Green_Triangle_Chess_1.jpg,Green_Star_Dots_3.jpg,Red_Triangle_Grid_4.jpg,right,750.1500000071246,true,NA,NA,NA,NA,NA,NA,NA,NA,true
FkLwAkkf,3atyli1pswfm29bow6spg463876ojo,3x08e93bhzvmcso73th8fkbze2166q,FkLwAkkf,2020-0188,2020-11-17,15:01:05,15:25:33,NA,incomplete,20,color,1,0,left,Red_Plus_Grid_1.jpg,Red_Circle_Chess_4.jpg,Green_Plus_Dots_3.jpg,left,1125.175000022864,true,NA,NA,NA,NA,NA,NA,NA,NA,true
FkLwAkkf,3atyli1pswfm29bow6spg463876ojo,3x08e93bhzvmcso73th8fkbze2166q,FkLwAkkf,2020-0188,2020-11-17,15:01:05,15:25:33,NA,incomplete,21,color,1,1,right,Purple_Circle_Chess_3.jpg,Green_Circle_Grid_4.jpg,Purple_Triangle_Stripes_2.jpg,right,778.4099999989849,true,NA,NA,NA,NA,NA,NA,NA,NA,true
FkLwAkkf,3atyli1pswfm29bow6spg463876ojo,3x08e93bhzvmcso73th8fkbze2166q,FkLwAkkf,2020-0188,2020-11-17,15:01:05,15:25:33,NA,incomplete,22,color,1,0,left,Red_Star_Stripes_1.jpg,Red_Circle_Chess_2.jpg,Blue_Star_Grid_3.jpg,left,1130.2499999874271,true,NA,NA,NA,NA,NA,NA,NA,NA,true
FkLwAkkf,3atyli1pswfm29bow6spg463876ojo,3x08e93bhzvmcso73th8fkbze2166q,FkLwAkkf,2020-0188,2020-11-17,15:01:05,15:25:33,NA,incomplete,23,color,1,1,left,Blue_Star_Stripes_2.jpg,Blue_Plus_Chess_3.jpg,Green_Star_Grid_1.jpg,left,1080.2200000034645,true,NA,NA,NA,NA,NA,NA,NA,NA,true
FkLwAkkf,3atyli1pswfm29bow6spg463876ojo,3x08e93bhzvmcso73th8fkbze2166q,FkLwAkkf,2020-0188,2020-11-17,15:01:05,15:25:33,NA,incomplete,24,color,1,1,right,Red_Plus_Chess_4.jpg,Blue_Plus_Stripes_1.jpg,Red_Star_Grid_2.jpg,left,1070.285000023432,false,NA,NA,NA,NA,NA,NA,NA,NA,true
FkLwAkkf,3atyli1pswfm29bow6spg463876ojo,3x08e93bhzvmcso73th8fkbze2166q,FkLwAkkf,2020-0188,2020-11-17,15:01:05,15:25:33,NA,incomplete,25,color,1,1,right,Purple_Circle_Dots_2.jpg,Blue_Circle_Stripes_3.jpg,Purple_Plus_Chess_4.jpg,right,958.9250000135507,true,NA,NA,NA,NA,NA,NA,NA,NA,true
FkLwAkkf,3atyli1pswfm29bow6spg463876ojo,3x08e93bhzvmcso73th8fkbze2166q,FkLwAkkf,2020-0188,2020-11-17,15:01:05,15:25:33,NA,incomplete,26,color,1,1,right,Red_Circle_Stripes_1.jpg,Blue_Circle_Chess_3.jpg,Red_Plus_Dots_2.jpg,right,800.9149999998044,true,NA,NA,NA,NA,NA,NA,NA,NA,true
FkLwAkkf,3atyli1pswfm29bow6spg463876ojo,3x08e93bhzvmcso73th8fkbze2166q,FkLwAkkf,2020-0188,2020-11-17,15:01:05,15:25:33,NA,incomplete,27,color,1,1,left,Red_Circle_Dots_3.jpg,Red_Star_Grid_4.jpg,Purple_Circle_Chess_2.jpg,left,992.5999999977648,true,NA,NA,NA,NA,NA,NA,NA,NA,true
FkLwAkkf,3atyli1pswfm29bow6spg463876ojo,3x08e93bhzvmcso73th8fkbze2166q,FkLwAkkf,2020-0188,2020-11-17,15:01:05,15:25:33,NA,incomplete,28,color,1,1,right,Red_Triangle_Grid_4.jpg,Blue_Triangle_Chess_2.jpg,Red_Plus_Dots_3.jpg,right,810.3699999919627,true,NA,NA,NA,NA,NA,NA,NA,NA,true
FkLwAkkf,3atyli1pswfm29bow6spg463876ojo,3x08e93bhzvmcso73th8fkbze2166q,FkLwAkkf,2020-0188,2020-11-17,15:01:05,15:25:33,NA,incomplete,29,color,1,1,right,Red_Star_Dots_4.jpg,Blue_Star_Grid_1.jpg,Red_Circle_Chess_2.jpg,right,804.4800000207033,true,NA,NA,NA,NA,NA,NA,NA,NA,true
FkLwAkkf,3atyli1pswfm29bow6spg463876ojo,3x08e93bhzvmcso73th8fkbze2166q,FkLwAkkf,2020-0188,2020-11-17,15:01:05,15:25:33,NA,incomplete,30,color,1,1,left,Purple_Triangle_Dots_1.jpg,Purple_Circle_Grid_2.jpg,Red_Triangle_Stripes_4.jpg,right,1133.399999991525,false,NA,NA,NA,NA,NA,NA,NA,NA,true
FkLwAkkf,3atyli1pswfm29bow6spg463876ojo,3x08e93bhzvmcso73th8fkbze2166q,FkLwAkkf,2020-0188,2020-11-17,15:01:05,15:25:33,NA,incomplete,31,color,1,1,left,Blue_Plus_Stripes_1.jpg,Blue_Circle_Dots_2.jpg,Purple_Plus_Grid_3.jpg,left,794.2850000108592,true,NA,NA,NA,NA,NA,NA,NA,NA,true
FkLwAkkf,3atyli1pswfm29bow6spg463876ojo,3x08e93bhzvmcso73th8fkbze2166q,FkLwAkkf,2020-0188,2020-11-17,15:01:05,15:25:33,NA,incomplete,32,color,1,1,right,Red_Star_Grid_2.jpg,Green_Star_Dots_4.jpg,Red_Circle_Chess_1.jpg,right,1462.9300000087824,true,NA,NA,NA,NA,NA,NA,NA,NA,true
FkLwAkkf,3atyli1pswfm29bow6spg463876ojo,3x08e93bhzvmcso73th8fkbze2166q,FkLwAkkf,2020-0188,2020-11-17,15:01:05,15:25:33,NA,incomplete,33,color,1,0,left,Purple_Star_Chess_4.jpg,Purple_Circle_Stripes_2.jpg,Blue_Star_Dots_1.jpg,left,798.7849999917671,true,NA,NA,NA,NA,NA,NA,NA,NA,true
FkLwAkkf,3atyli1pswfm29bow6spg463876ojo,3x08e93bhzvmcso73th8fkbze2166q,FkLwAkkf,2020-0188,2020-11-17,15:01:05,15:25:33,NA,incomplete,34,color,1,1,left,Green_Triangle_Dots_3.jpg,Green_Plus_Grid_2.jpg,Red_Triangle_Chess_4.jpg,left,815.6500000040978,true,NA,NA,NA,NA,NA,NA,NA,NA,true
FkLwAkkf,3atyli1pswfm29bow6spg463876ojo,3x08e93bhzvmcso73th8fkbze2166q,FkLwAkkf,2020-0188,2020-11-17,15:01:05,15:25:33,NA,incomplete,35,color,1,1,right,Green_Plus_Dots_1.jpg,Blue_Plus_Stripes_2.jpg,Green_Triangle_Chess_4.jpg,right,861.639999988256,true,NA,NA,NA,NA,NA,NA,NA,NA,true
FkLwAkkf,3atyli1pswfm29bow6spg463876ojo,3x08e93bhzvmcso73th8fkbze2166q,FkLwAkkf,2020-0188,2020-11-17,15:01:05,15:25:33,NA,incomplete,36,color,1,1,right,Green_Plus_Dots_3.jpg,Blue_Plus_Grid_2.jpg,Green_Triangle_Chess_1.jpg,right,1075.844999984838,true,NA,NA,NA,NA,NA,NA,NA,NA,true
FkLwAkkf,3atyli1pswfm29bow6spg463876ojo,3x08e93bhzvmcso73th8fkbze2166q,FkLwAkkf,2020-0188,2020-11-17,15:01:05,15:25:33,NA,incomplete,37,color,1,0,right,Green_Circle_Chess_1.jpg,Red_Circle_Grid_4.jpg,Green_Triangle_Dots_2.jpg,right,735.080000013113,true,NA,NA,NA,NA,NA,NA,NA,NA,true
FkLwAkkf,3atyli1pswfm29bow6spg463876ojo,3x08e93bhzvmcso73th8fkbze2166q,FkLwAkkf,2020-0188,2020-11-17,15:01:05,15:25:33,NA,incomplete,38,color,1,1,left,Blue_Star_Stripes_3.jpg,Blue_Plus_Chess_4.jpg,Red_Star_Dots_1.jpg,left,806.2499999941792,true,NA,NA,NA,NA,NA,NA,NA,NA,true
FkLwAkkf,3atyli1pswfm29bow6spg463876ojo,3x08e93bhzvmcso73th8fkbze2166q,FkLwAkkf,2020-0188,2020-11-17,15:01:05,15:25:33,NA,incomplete,39,color,1,1,left,Red_Plus_Grid_2.jpg,Red_Triangle_Dots_3.jpg,Green_Plus_Chess_1.jpg,left,895.4849999863654,true,NA,NA,NA,NA,NA,NA,NA,NA,true
FkLwAkkf,3atyli1pswfm29bow6spg463876ojo,3x08e93bhzvmcso73th8fkbze2166q,FkLwAkkf,2020-0188,2020-11-17,15:01:05,15:25:33,NA,incomplete,0,shape,0,1,left,Purple_Circle_Dots_1.jpg,Green_Circle_Grid_4.jpg,Purple_Plus_Stripes_2.jpg,right,1195.6200000131503,false,low,NA,NA,NA,NA,NA,NA,NA,false
FkLwAkkf,3atyli1pswfm29bow6spg463876ojo,3x08e93bhzvmcso73th8fkbze2166q,FkLwAkkf,2020-0188,2020-11-17,15:01:05,15:25:33,NA,incomplete,1,shape,0,1,left,Blue_Circle_Grid_1.jpg,Red_Circle_Stripes_4.jpg,Blue_Star_Chess_2.jpg,right,645.1250000100117,false,low,NA,NA,NA,NA,NA,NA,NA,false
FkLwAkkf,3atyli1pswfm29bow6spg463876ojo,3x08e93bhzvmcso73th8fkbze2166q,FkLwAkkf,2020-0188,2020-11-17,15:01:05,15:25:33,NA,incomplete,2,shape,0,1,right,Red_Triangle_Grid_1.jpg,Red_Plus_Chess_3.jpg,Purple_Triangle_Stripes_4.jpg,left,750.4750000080094,false,low,NA,NA,NA,NA,NA,NA,NA,false
FkLwAkkf,3atyli1pswfm29bow6spg463876ojo,3x08e93bhzvmcso73th8fkbze2166q,FkLwAkkf,2020-0188,2020-11-17,15:01:05,15:25:33,NA,incomplete,3,shape,0,1,right,Green_Plus_Chess_2.jpg,Green_Star_Dots_3.jpg,Purple_Plus_Stripes_1.jpg,right,990.7599999860395,true,low,NA,NA,NA,NA,NA,NA,NA,false
FkLwAkkf,3atyli1pswfm29bow6spg463876ojo,3x08e93bhzvmcso73th8fkbze2166q,FkLwAkkf,2020-0188,2020-11-17,15:01:05,15:25:33,NA,incomplete,4,shape,0,1,left,Red_Triangle_Chess_4.jpg,Green_Triangle_Grid_1.jpg,Red_Star_Stripes_3.jpg,left,1365.315000002738,true,low,NA,NA,NA,NA,NA,NA,NA,false
FkLwAkkf,3atyli1pswfm29bow6spg463876ojo,3x08e93bhzvmcso73th8fkbze2166q,FkLwAkkf,2020-0188,2020-11-17,15:01:05,15:25:33,NA,incomplete,5,shape,0,1,right,Green_Plus_Grid_2.jpg,Green_Triangle_Dots_1.jpg,Purple_Plus_Stripes_4.jpg,right,848.9449999760836,true,low,NA,NA,NA,NA,NA,NA,NA,false
FkLwAkkf,3atyli1pswfm29bow6spg463876ojo,3x08e93bhzvmcso73th8fkbze2166q,FkLwAkkf,2020-0188,2020-11-17,15:01:05,15:25:33,NA,incomplete,6,shape,0,1,left,Red_Circle_Stripes_1.jpg,Blue_Circle_Dots_2.jpg,Red_Triangle_Chess_4.jpg,left,842.930000013439,true,low,NA,NA,NA,NA,NA,NA,NA,false
FkLwAkkf,3atyli1pswfm29bow6spg463876ojo,3x08e93bhzvmcso73th8fkbze2166q,FkLwAkkf,2020-0188,2020-11-17,15:01:05,15:25:33,NA,incomplete,7,shape,0,0,right,Green_Star_Grid_1.jpg,Green_Circle_Dots_4.jpg,Red_Star_Chess_2.jpg,right,835.9549999877345,true,low,NA,NA,NA,NA,NA,NA,NA,false
FkLwAkkf,3atyli1pswfm29bow6spg463876ojo,3x08e93bhzvmcso73th8fkbze2166q,FkLwAkkf,2020-0188,2020-11-17,15:01:05,15:25:33,NA,incomplete,8,shape,0,1,right,Purple_Plus_Stripes_3.jpg,Purple_Star_Dots_2.jpg,Green_Plus_Chess_4.jpg,right,807.7800000028219,true,low,NA,NA,NA,NA,NA,NA,NA,false
FkLwAkkf,3atyli1pswfm29bow6spg463876ojo,3x08e93bhzvmcso73th8fkbze2166q,FkLwAkkf,2020-0188,2020-11-17,15:01:05,15:25:33,NA,incomplete,9,shape,0,1,left,Blue_Circle_Dots_4.jpg,Red_Circle_Stripes_3.jpg,Blue_Plus_Grid_1.jpg,left,1120.2700000139885,true,low,NA,NA,NA,NA,NA,NA,NA,false
FkLwAkkf,3atyli1pswfm29bow6spg463876ojo,3x08e93bhzvmcso73th8fkbze2166q,FkLwAkkf,2020-0188,2020-11-17,15:01:05,15:25:33,NA,incomplete,10,color,1,1,left,Green_Circle_Chess_3.jpg,Green_Triangle_Stripes_2.jpg,Purple_Circle_Grid_1.jpg,right,746.435000008205,false,low,NA,NA,NA,NA,NA,NA,NA,false
FkLwAkkf,3atyli1pswfm29bow6spg463876ojo,3x08e93bhzvmcso73th8fkbze2166q,FkLwAkkf,2020-0188,2020-11-17,15:01:05,15:25:33,NA,incomplete,11,color,1,1,left,Red_Triangle_Grid_1.jpg,Red_Circle_Dots_3.jpg,Green_Triangle_Chess_4.jpg,right,721.9499999773689,false,low,NA,NA,NA,NA,NA,NA,NA,false
FkLwAkkf,3atyli1pswfm29bow6spg463876ojo,3x08e93bhzvmcso73th8fkbze2166q,FkLwAkkf,2020-0188,2020-11-17,15:01:05,15:25:33,NA,incomplete,12,color,1,1,left,Red_Triangle_Grid_1.jpg,Red_Circle_Dots_2.jpg,Green_Triangle_Stripes_3.jpg,right,726.4650000142865,false,low,NA,NA,NA,NA,NA,NA,NA,false
FkLwAkkf,3atyli1pswfm29bow6spg463876ojo,3x08e93bhzvmcso73th8fkbze2166q,FkLwAkkf,2020-0188,2020-11-17,15:01:05,15:25:33,NA,incomplete,13,color,1,0,right,Green_Star_Grid_4.jpg,Blue_Star_Stripes_1.jpg,Green_Triangle_Dots_3.jpg,right,707.7900000149384,true,low,NA,NA,NA,NA,NA,NA,NA,false
FkLwAkkf,3atyli1pswfm29bow6spg463876ojo,3x08e93bhzvmcso73th8fkbze2166q,FkLwAkkf,2020-0188,2020-11-17,15:01:05,15:25:33,NA,incomplete,14,color,1,1,right,Blue_Plus_Chess_3.jpg,Purple_Plus_Stripes_2.jpg,Blue_Triangle_Grid_1.jpg,right,701.6650000005029,true,low,NA,NA,NA,NA,NA,NA,NA,false
FkLwAkkf,3atyli1pswfm29bow6spg463876ojo,3x08e93bhzvmcso73th8fkbze2166q,FkLwAkkf,2020-0188,2020-11-17,15:01:05,15:25:33,NA,incomplete,15,color,1,0,left,Blue_Star_Grid_3.jpg,Blue_Triangle_Chess_2.jpg,Green_Star_Dots_1.jpg,left,713.820000004489,true,low,NA,NA,NA,NA,NA,NA,NA,false
FkLwAkkf,3atyli1pswfm29bow6spg463876ojo,3x08e93bhzvmcso73th8fkbze2166q,FkLwAkkf,2020-0188,2020-11-17,15:01:05,15:25:33,NA,incomplete,16,color,1,1,right,Purple_Triangle_Grid_4.jpg,Green_Triangle_Dots_2.jpg,Purple_Plus_Stripes_3.jpg,right,817.8350000234786,true,low,NA,NA,NA,NA,NA,NA,NA,false
FkLwAkkf,3atyli1pswfm29bow6spg463876ojo,3x08e93bhzvmcso73th8fkbze2166q,FkLwAkkf,2020-0188,2020-11-17,15:01:05,15:25:33,NA,incomplete,17,color,1,1,right,Blue_Circle_Chess_2.jpg,Green_Circle_Grid_3.jpg,Blue_Plus_Dots_4.jpg,right,731.274999998277,true,low,NA,NA,NA,NA,NA,NA,NA,false
FkLwAkkf,3atyli1pswfm29bow6spg463876ojo,3x08e93bhzvmcso73th8fkbze2166q,FkLwAkkf,2020-0188,2020-11-17,15:01:05,15:25:33,NA,incomplete,18,color,1,1,right,Green_Plus_Chess_2.jpg,Blue_Plus_Stripes_4.jpg,Green_Star_Grid_3.jpg,right,664.695000014035,true,low,NA,NA,NA,NA,NA,NA,NA,false
FkLwAkkf,3atyli1pswfm29bow6spg463876ojo,3x08e93bhzvmcso73th8fkbze2166q,FkLwAkkf,2020-0188,2020-11-17,15:01:05,15:25:33,NA,incomplete,19,color,1,1,right,Blue_Star_Dots_4.jpg,Green_Star_Grid_2.jpg,Blue_Plus_Stripes_1.jpg,right,720.5549999780487,true,low,NA,NA,NA,NA,NA,NA,NA,false
FkLwAkkf,3atyli1pswfm29bow6spg463876ojo,3x08e93bhzvmcso73th8fkbze2166q,FkLwAkkf,2020-0188,2020-11-17,15:01:05,15:25:33,NA,incomplete,20,shape,0,1,right,Red_Triangle_Dots_2.jpg,Red_Plus_Chess_1.jpg,Blue_Triangle_Stripes_3.jpg,left,1030.9399999969173,false,low,NA,NA,NA,NA,NA,NA,NA,false
FkLwAkkf,3atyli1pswfm29bow6spg463876ojo,3x08e93bhzvmcso73th8fkbze2166q,FkLwAkkf,2020-0188,2020-11-17,15:01:05,15:25:33,NA,incomplete,21,shape,0,0,left,Blue_Plus_Stripes_2.jpg,Green_Plus_Dots_1.jpg,Blue_Star_Grid_4.jpg,right,808.4899999957997,false,low,NA,NA,NA,NA,NA,NA,NA,false
FkLwAkkf,3atyli1pswfm29bow6spg463876ojo,3x08e93bhzvmcso73th8fkbze2166q,FkLwAkkf,2020-0188,2020-11-17,15:01:05,15:25:33,NA,incomplete,22,shape,0,1,right,Blue_Star_Stripes_3.jpg,Blue_Plus_Chess_1.jpg,Green_Star_Grid_2.jpg,left,934.899999992922,false,low,NA,NA,NA,NA,NA,NA,NA,false
FkLwAkkf,3atyli1pswfm29bow6spg463876ojo,3x08e93bhzvmcso73th8fkbze2166q,FkLwAkkf,2020-0188,2020-11-17,15:01:05,15:25:33,NA,incomplete,23,shape,0,1,right,Green_Circle_Dots_1.jpg,Green_Triangle_Chess_2.jpg,Blue_Circle_Grid_3.jpg,left,690.8149999799207,false,low,NA,NA,NA,NA,NA,NA,NA,false
FkLwAkkf,3atyli1pswfm29bow6spg463876ojo,3x08e93bhzvmcso73th8fkbze2166q,FkLwAkkf,2020-0188,2020-11-17,15:01:05,15:25:33,NA,incomplete,24,shape,0,1,left,Green_Triangle_Chess_3.jpg,Purple_Triangle_Dots_4.jpg,Green_Plus_Grid_1.jpg,left,1004.3599999917205,true,low,NA,NA,NA,NA,NA,NA,NA,false
FkLwAkkf,3atyli1pswfm29bow6spg463876ojo,3x08e93bhzvmcso73th8fkbze2166q,FkLwAkkf,2020-0188,2020-11-17,15:01:05,15:25:33,NA,incomplete,25,shape,0,1,right,Red_Triangle_Dots_3.jpg,Red_Star_Chess_4.jpg,Purple_Triangle_Stripes_1.jpg,right,1003.4100000048056,true,low,NA,NA,NA,NA,NA,NA,NA,false
FkLwAkkf,3atyli1pswfm29bow6spg463876ojo,3x08e93bhzvmcso73th8fkbze2166q,FkLwAkkf,2020-0188,2020-11-17,15:01:05,15:25:33,NA,incomplete,26,shape,0,1,left,Red_Plus_Dots_3.jpg,Purple_Plus_Stripes_1.jpg,Red_Star_Chess_2.jpg,left,857.5400000263471,true,low,NA,NA,NA,NA,NA,NA,NA,false
FkLwAkkf,3atyli1pswfm29bow6spg463876ojo,3x08e93bhzvmcso73th8fkbze2166q,FkLwAkkf,2020-0188,2020-11-17,15:01:05,15:25:33,NA,incomplete,27,shape,0,1,left,Red_Plus_Dots_4.jpg,Purple_Plus_Grid_1.jpg,Red_Triangle_Chess_2.jpg,left,920.7049999968149,true,low,NA,NA,NA,NA,NA,NA,NA,false
FkLwAkkf,3atyli1pswfm29bow6spg463876ojo,3x08e93bhzvmcso73th8fkbze2166q,FkLwAkkf,2020-0188,2020-11-17,15:01:05,15:25:33,NA,incomplete,28,shape,0,1,left,Red_Star_Dots_2.jpg,Purple_Star_Stripes_4.jpg,Red_Plus_Chess_1.jpg,left,907.5200000079349,true,low,NA,NA,NA,NA,NA,NA,NA,false
FkLwAkkf,3atyli1pswfm29bow6spg463876ojo,3x08e93bhzvmcso73th8fkbze2166q,FkLwAkkf,2020-0188,2020-11-17,15:01:05,15:25:33,NA,incomplete,29,shape,0,1,right,Blue_Triangle_Dots_4.jpg,Blue_Plus_Grid_2.jpg,Purple_Triangle_Stripes_1.jpg,right,809.1699999931734,true,low,NA,NA,NA,NA,NA,NA,NA,false
FkLwAkkf,3atyli1pswfm29bow6spg463876ojo,3x08e93bhzvmcso73th8fkbze2166q,FkLwAkkf,2020-0188,2020-11-17,15:01:05,15:25:33,NA,incomplete,30,color,1,0,right,Blue_Star_Chess_2.jpg,Red_Star_Stripes_3.jpg,Blue_Circle_Grid_1.jpg,left,851.524999976391,false,low,NA,NA,NA,NA,NA,NA,NA,false
FkLwAkkf,3atyli1pswfm29bow6spg463876ojo,3x08e93bhzvmcso73th8fkbze2166q,FkLwAkkf,2020-0188,2020-11-17,15:01:05,15:25:33,NA,incomplete,31,color,1,0,right,Purple_Plus_Dots_4.jpg,Blue_Plus_Grid_1.jpg,Purple_Triangle_Chess_3.jpg,left,929.2150000110269,false,low,NA,NA,NA,NA,NA,NA,NA,false
FkLwAkkf,3atyli1pswfm29bow6spg463876ojo,3x08e93bhzvmcso73th8fkbze2166q,FkLwAkkf,2020-0188,2020-11-17,15:01:05,15:25:33,NA,incomplete,32,color,1,1,right,Purple_Circle_Stripes_3.jpg,Green_Circle_Grid_2.jpg,Purple_Plus_Dots_4.jpg,left,1229.7899999830406,false,low,NA,NA,NA,NA,NA,NA,NA,false
FkLwAkkf,3atyli1pswfm29bow6spg463876ojo,3x08e93bhzvmcso73th8fkbze2166q,FkLwAkkf,2020-0188,2020-11-17,15:01:05,15:25:33,NA,incomplete,33,color,1,1,left,Green_Triangle_Chess_3.jpg,Green_Circle_Dots_1.jpg,Blue_Triangle_Stripes_4.jpg,right,817.4249999865424,false,low,NA,NA,NA,NA,NA,NA,NA,false
FkLwAkkf,3atyli1pswfm29bow6spg463876ojo,3x08e93bhzvmcso73th8fkbze2166q,FkLwAkkf,2020-0188,2020-11-17,15:01:05,15:25:33,NA,incomplete,34,color,1,1,left,Green_Circle_Stripes_2.jpg,Green_Star_Chess_4.jpg,Red_Circle_Dots_3.jpg,right,1038.0650000006426,false,low,NA,NA,NA,NA,NA,NA,NA,false
FkLwAkkf,3atyli1pswfm29bow6spg463876ojo,3x08e93bhzvmcso73th8fkbze2166q,FkLwAkkf,2020-0188,2020-11-17,15:01:05,15:25:33,NA,incomplete,35,color,1,0,right,Red_Star_Dots_2.jpg,Green_Star_Grid_1.jpg,Red_Circle_Stripes_3.jpg,left,736.1650000093505,false,low,NA,NA,NA,NA,NA,NA,NA,false
FkLwAkkf,3atyli1pswfm29bow6spg463876ojo,3x08e93bhzvmcso73th8fkbze2166q,FkLwAkkf,2020-0188,2020-11-17,15:01:05,15:25:33,NA,incomplete,36,color,1,1,left,Purple_Circle_Chess_2.jpg,Purple_Triangle_Dots_3.jpg,Green_Circle_Stripes_1.jpg,right,678.8950000191107,false,low,NA,NA,NA,NA,NA,NA,NA,false
FkLwAkkf,3atyli1pswfm29bow6spg463876ojo,3x08e93bhzvmcso73th8fkbze2166q,FkLwAkkf,2020-0188,2020-11-17,15:01:05,15:25:33,NA,incomplete,37,color,1,1,right,Green_Triangle_Grid_2.jpg,Purple_Triangle_Chess_3.jpg,Green_Plus_Stripes_1.jpg,left,933.6500000208616,false,low,NA,NA,NA,NA,NA,NA,NA,false
FkLwAkkf,3atyli1pswfm29bow6spg463876ojo,3x08e93bhzvmcso73th8fkbze2166q,FkLwAkkf,2020-0188,2020-11-17,15:01:05,15:25:33,NA,incomplete,38,color,1,1,left,Green_Star_Grid_1.jpg,Green_Circle_Stripes_3.jpg,Blue_Star_Dots_2.jpg,right,785.3549999999814,false,low,NA,NA,NA,NA,NA,NA,NA,false
FkLwAkkf,3atyli1pswfm29bow6spg463876ojo,3x08e93bhzvmcso73th8fkbze2166q,FkLwAkkf,2020-0188,2020-11-17,15:01:05,15:25:33,NA,incomplete,39,color,1,1,right,Purple_Triangle_Grid_3.jpg,Red_Triangle_Stripes_1.jpg,Purple_Circle_Chess_4.jpg,left,719.5449999999255,false,low,NA,NA,NA,NA,NA,NA,NA,false
FkLwAkkf,3atyli1pswfm29bow6spg463876ojo,3x08e93bhzvmcso73th8fkbze2166q,FkLwAkkf,2020-0188,2020-11-17,15:01:05,15:25:33,NA,incomplete,40,shape,0,1,left,Blue_Circle_Stripes_4.jpg,Purple_Circle_Chess_2.jpg,Blue_Triangle_Dots_1.jpg,left,747.3949999839533,true,low,NA,NA,NA,NA,NA,NA,NA,false
FkLwAkkf,3atyli1pswfm29bow6spg463876ojo,3x08e93bhzvmcso73th8fkbze2166q,FkLwAkkf,2020-0188,2020-11-17,15:01:05,15:25:33,NA,incomplete,41,shape,0,1,right,Red_Triangle_Chess_3.jpg,Red_Star_Grid_2.jpg,Purple_Triangle_Dots_4.jpg,left,885.3700000036042,false,low,NA,NA,NA,NA,NA,NA,NA,false
FkLwAkkf,3atyli1pswfm29bow6spg463876ojo,3x08e93bhzvmcso73th8fkbze2166q,FkLwAkkf,2020-0188,2020-11-17,15:01:05,15:25:33,NA,incomplete,42,shape,0,1,left,Blue_Plus_Chess_2.jpg,Red_Plus_Dots_4.jpg,Blue_Star_Grid_1.jpg,left,847.9600000136998,true,low,NA,NA,NA,NA,NA,NA,NA,false
FkLwAkkf,3atyli1pswfm29bow6spg463876ojo,3x08e93bhzvmcso73th8fkbze2166q,FkLwAkkf,2020-0188,2020-11-17,15:01:05,15:25:33,NA,incomplete,43,shape,0,1,left,Red_Plus_Stripes_2.jpg,Blue_Plus_Grid_3.jpg,Red_Star_Dots_1.jpg,left,770.1949999900535,true,low,NA,NA,NA,NA,NA,NA,NA,false
FkLwAkkf,3atyli1pswfm29bow6spg463876ojo,3x08e93bhzvmcso73th8fkbze2166q,FkLwAkkf,2020-0188,2020-11-17,15:01:05,15:25:33,NA,incomplete,44,shape,0,1,left,Purple_Plus_Dots_3.jpg,Green_Plus_Chess_2.jpg,Purple_Star_Grid_1.jpg,left,576.0500000033062,true,low,NA,NA,NA,NA,NA,NA,NA,false
FkLwAkkf,3atyli1pswfm29bow6spg463876ojo,3x08e93bhzvmcso73th8fkbze2166q,FkLwAkkf,2020-0188,2020-11-17,15:01:05,15:25:33,NA,incomplete,45,shape,0,0,right,Green_Triangle_Grid_2.jpg,Green_Star_Stripes_3.jpg,Red_Triangle_Chess_4.jpg,right,708.6699999927077,true,low,NA,NA,NA,NA,NA,NA,NA,false
FkLwAkkf,3atyli1pswfm29bow6spg463876ojo,3x08e93bhzvmcso73th8fkbze2166q,FkLwAkkf,2020-0188,2020-11-17,15:01:05,15:25:33,NA,incomplete,46,shape,0,0,right,Green_Plus_Chess_4.jpg,Green_Triangle_Stripes_1.jpg,Blue_Plus_Grid_2.jpg,right,730.0600000016857,true,low,NA,NA,NA,NA,NA,NA,NA,false
FkLwAkkf,3atyli1pswfm29bow6spg463876ojo,3x08e93bhzvmcso73th8fkbze2166q,FkLwAkkf,2020-0188,2020-11-17,15:01:05,15:25:33,NA,incomplete,47,shape,0,1,left,Red_Triangle_Stripes_2.jpg,Purple_Triangle_Dots_4.jpg,Red_Circle_Chess_1.jpg,left,620.6600000150502,true,low,NA,NA,NA,NA,NA,NA,NA,false
FkLwAkkf,3atyli1pswfm29bow6spg463876ojo,3x08e93bhzvmcso73th8fkbze2166q,FkLwAkkf,2020-0188,2020-11-17,15:01:05,15:25:33,NA,incomplete,48,shape,0,1,right,Red_Plus_Chess_1.jpg,Red_Triangle_Dots_2.jpg,Blue_Plus_Grid_3.jpg,right,741.9299999892246,true,low,NA,NA,NA,NA,NA,NA,NA,false
FkLwAkkf,3atyli1pswfm29bow6spg463876ojo,3x08e93bhzvmcso73th8fkbze2166q,FkLwAkkf,2020-0188,2020-11-17,15:01:05,15:25:33,NA,incomplete,49,shape,0,1,right,Green_Star_Stripes_3.jpg,Green_Triangle_Dots_2.jpg,Purple_Star_Chess_1.jpg,right,876.7900000093505,true,low,NA,NA,NA,NA,NA,NA,NA,false
FkLwAkkf,3atyli1pswfm29bow6spg463876ojo,3x08e93bhzvmcso73th8fkbze2166q,FkLwAkkf,2020-0188,2020-11-17,15:01:05,15:25:33,NA,incomplete,50,color,1,1,right,Red_Plus_Grid_3.jpg,Green_Plus_Chess_1.jpg,Red_Star_Stripes_4.jpg,left,820.3399999765679,false,low,NA,NA,NA,NA,NA,NA,NA,false
FkLwAkkf,3atyli1pswfm29bow6spg463876ojo,3x08e93bhzvmcso73th8fkbze2166q,FkLwAkkf,2020-0188,2020-11-17,15:01:05,15:25:33,NA,incomplete,51,color,1,1,left,Green_Star_Chess_2.jpg,Green_Plus_Dots_4.jpg,Red_Star_Stripes_3.jpg,right,873.9849999838043,false,low,NA,NA,NA,NA,NA,NA,NA,false
FkLwAkkf,3atyli1pswfm29bow6spg463876ojo,3x08e93bhzvmcso73th8fkbze2166q,FkLwAkkf,2020-0188,2020-11-17,15:01:05,15:25:33,NA,incomplete,52,color,1,1,left,Blue_Plus_Grid_4.jpg,Blue_Star_Chess_3.jpg,Green_Plus_Dots_1.jpg,left,879.9250000156462,true,low,NA,NA,NA,NA,NA,NA,NA,false
FkLwAkkf,3atyli1pswfm29bow6spg463876ojo,3x08e93bhzvmcso73th8fkbze2166q,FkLwAkkf,2020-0188,2020-11-17,15:01:05,15:25:33,NA,incomplete,53,color,1,1,left,Purple_Circle_Stripes_1.jpg,Purple_Star_Chess_2.jpg,Blue_Circle_Dots_4.jpg,left,1020.7199999713339,true,low,NA,NA,NA,NA,NA,NA,NA,false
FkLwAkkf,3atyli1pswfm29bow6spg463876ojo,3x08e93bhzvmcso73th8fkbze2166q,FkLwAkkf,2020-0188,2020-11-17,15:01:05,15:25:33,NA,incomplete,54,color,1,1,left,Purple_Star_Dots_2.jpg,Purple_Circle_Stripes_4.jpg,Red_Star_Chess_3.jpg,left,934.9599999841303,true,low,NA,NA,NA,NA,NA,NA,NA,false
FkLwAkkf,3atyli1pswfm29bow6spg463876ojo,3x08e93bhzvmcso73th8fkbze2166q,FkLwAkkf,2020-0188,2020-11-17,15:01:05,15:25:33,NA,incomplete,55,color,1,1,right,Green_Circle_Stripes_1.jpg,Red_Circle_Grid_4.jpg,Green_Star_Chess_2.jpg,right,1022.064999997383,true,low,NA,NA,NA,NA,NA,NA,NA,false
FkLwAkkf,3atyli1pswfm29bow6spg463876ojo,3x08e93bhzvmcso73th8fkbze2166q,FkLwAkkf,2020-0188,2020-11-17,15:01:05,15:25:33,NA,incomplete,56,color,1,1,left,Red_Triangle_Grid_1.jpg,Red_Plus_Stripes_2.jpg,Purple_Triangle_Chess_4.jpg,left,1109.469999995781,true,low,NA,NA,NA,NA,NA,NA,NA,false
FkLwAkkf,3atyli1pswfm29bow6spg463876ojo,3x08e93bhzvmcso73th8fkbze2166q,FkLwAkkf,2020-0188,2020-11-17,15:01:05,15:25:33,NA,incomplete,57,color,1,1,right,Blue_Triangle_Chess_1.jpg,Purple_Triangle_Dots_3.jpg,Blue_Circle_Stripes_2.jpg,right,895.6350000225939,true,low,NA,NA,NA,NA,NA,NA,NA,false
FkLwAkkf,3atyli1pswfm29bow6spg463876ojo,3x08e93bhzvmcso73th8fkbze2166q,FkLwAkkf,2020-0188,2020-11-17,15:01:05,15:25:33,NA,incomplete,58,color,1,0,left,Blue_Circle_Stripes_2.jpg,Blue_Triangle_Dots_1.jpg,Red_Circle_Grid_4.jpg,left,1123.0499999946915,true,low,NA,NA,NA,NA,NA,NA,NA,false
FkLwAkkf,3atyli1pswfm29bow6spg463876ojo,3x08e93bhzvmcso73th8fkbze2166q,FkLwAkkf,2020-0188,2020-11-17,15:01:05,15:25:33,NA,incomplete,59,color,1,1,left,Red_Plus_Dots_2.jpg,Red_Circle_Chess_4.jpg,Purple_Plus_Stripes_3.jpg,left,889.2250000208151,true,low,NA,NA,NA,NA,NA,NA,NA,false
FkLwAkkf,3atyli1pswfm29bow6spg463876ojo,3x08e93bhzvmcso73th8fkbze2166q,FkLwAkkf,2020-0188,2020-11-17,15:01:05,15:25:33,NA,incomplete,60,shape,0,0,right,Green_Plus_Stripes_2.jpg,Green_Star_Grid_3.jpg,Red_Plus_Dots_1.jpg,left,720.1899999927264,false,low,NA,NA,NA,NA,NA,NA,NA,false
FkLwAkkf,3atyli1pswfm29bow6spg463876ojo,3x08e93bhzvmcso73th8fkbze2166q,FkLwAkkf,2020-0188,2020-11-17,15:01:05,15:25:33,NA,incomplete,61,shape,0,1,left,Green_Triangle_Chess_1.jpg,Red_Triangle_Dots_2.jpg,Green_Star_Grid_4.jpg,right,702.0900000061374,false,low,NA,NA,NA,NA,NA,NA,NA,false
FkLwAkkf,3atyli1pswfm29bow6spg463876ojo,3x08e93bhzvmcso73th8fkbze2166q,FkLwAkkf,2020-0188,2020-11-17,15:01:05,15:25:33,NA,incomplete,62,shape,0,1,left,Blue_Triangle_Chess_2.jpg,Purple_Triangle_Dots_3.jpg,Blue_Star_Grid_1.jpg,right,727.1449999825563,false,low,NA,NA,NA,NA,NA,NA,NA,false
FkLwAkkf,3atyli1pswfm29bow6spg463876ojo,3x08e93bhzvmcso73th8fkbze2166q,FkLwAkkf,2020-0188,2020-11-17,15:01:05,15:25:33,NA,incomplete,63,shape,0,1,right,Blue_Triangle_Dots_2.jpg,Blue_Star_Grid_1.jpg,Green_Triangle_Chess_4.jpg,right,845.7249999919441,true,low,NA,NA,NA,NA,NA,NA,NA,false
FkLwAkkf,3atyli1pswfm29bow6spg463876ojo,3x08e93bhzvmcso73th8fkbze2166q,FkLwAkkf,2020-0188,2020-11-17,15:01:05,15:25:33,NA,incomplete,64,shape,0,1,left,Purple_Triangle_Dots_1.jpg,Red_Triangle_Grid_3.jpg,Purple_Plus_Stripes_4.jpg,left,770.539999997709,true,low,NA,NA,NA,NA,NA,NA,NA,false
FkLwAkkf,3atyli1pswfm29bow6spg463876ojo,3x08e93bhzvmcso73th8fkbze2166q,FkLwAkkf,2020-0188,2020-11-17,15:01:05,15:25:33,NA,incomplete,65,shape,0,1,right,Purple_Triangle_Stripes_3.jpg,Purple_Circle_Grid_1.jpg,Green_Triangle_Dots_2.jpg,right,693.9950000087265,true,low,NA,NA,NA,NA,NA,NA,NA,false
FkLwAkkf,3atyli1pswfm29bow6spg463876ojo,3x08e93bhzvmcso73th8fkbze2166q,FkLwAkkf,2020-0188,2020-11-17,15:01:05,15:25:33,NA,incomplete,66,shape,0,1,left,Blue_Star_Chess_1.jpg,Green_Star_Grid_2.jpg,Blue_Triangle_Dots_4.jpg,left,768.7750000040978,true,low,NA,NA,NA,NA,NA,NA,NA,false
FkLwAkkf,3atyli1pswfm29bow6spg463876ojo,3x08e93bhzvmcso73th8fkbze2166q,FkLwAkkf,2020-0188,2020-11-17,15:01:05,15:25:33,NA,incomplete,67,shape,0,0,left,Red_Plus_Dots_2.jpg,Blue_Plus_Stripes_1.jpg,Red_Triangle_Chess_4.jpg,left,1203.5650000034366,true,low,NA,NA,NA,NA,NA,NA,NA,false
FkLwAkkf,3atyli1pswfm29bow6spg463876ojo,3x08e93bhzvmcso73th8fkbze2166q,FkLwAkkf,2020-0188,2020-11-17,15:01:05,15:25:33,NA,incomplete,68,shape,0,1,left,Blue_Plus_Stripes_4.jpg,Red_Plus_Dots_1.jpg,Blue_Circle_Chess_3.jpg,left,871.0750000027474,true,low,NA,NA,NA,NA,NA,NA,NA,false
FkLwAkkf,3atyli1pswfm29bow6spg463876ojo,3x08e93bhzvmcso73th8fkbze2166q,FkLwAkkf,2020-0188,2020-11-17,15:01:05,15:25:33,NA,incomplete,69,shape,0,1,left,Blue_Plus_Grid_3.jpg,Red_Plus_Chess_4.jpg,Blue_Triangle_Stripes_1.jpg,left,738.2900000084192,true,low,NA,NA,NA,NA,NA,NA,NA,false
FkLwAkkf,3atyli1pswfm29bow6spg463876ojo,3x08e93bhzvmcso73th8fkbze2166q,FkLwAkkf,2020-0188,2020-11-17,15:01:05,15:25:33,NA,incomplete,70,color,1,0,left,Green_Triangle_Dots_1.jpg,Green_Circle_Grid_4.jpg,Blue_Triangle_Stripes_3.jpg,right,793.5400000133086,false,low,NA,NA,NA,NA,NA,NA,NA,false
FkLwAkkf,3atyli1pswfm29bow6spg463876ojo,3x08e93bhzvmcso73th8fkbze2166q,FkLwAkkf,2020-0188,2020-11-17,15:01:05,15:25:33,NA,incomplete,71,color,1,1,right,Red_Triangle_Stripes_4.jpg,Purple_Triangle_Dots_3.jpg,Red_Plus_Grid_2.jpg,left,733.6650000070222,false,low,NA,NA,NA,NA,NA,NA,NA,false
FkLwAkkf,3atyli1pswfm29bow6spg463876ojo,3x08e93bhzvmcso73th8fkbze2166q,FkLwAkkf,2020-0188,2020-11-17,15:01:05,15:25:33,NA,incomplete,72,color,1,1,left,Blue_Triangle_Dots_3.jpg,Blue_Circle_Chess_1.jpg,Red_Triangle_Grid_4.jpg,right,841.4350000093691,false,low,NA,NA,NA,NA,NA,NA,NA,false
FkLwAkkf,3atyli1pswfm29bow6spg463876ojo,3x08e93bhzvmcso73th8fkbze2166q,FkLwAkkf,2020-0188,2020-11-17,15:01:05,15:25:33,NA,incomplete,73,color,1,1,left,Green_Plus_Grid_3.jpg,Green_Star_Dots_4.jpg,Blue_Plus_Stripes_1.jpg,left,654.8450000118464,true,low,NA,NA,NA,NA,NA,NA,NA,false
FkLwAkkf,3atyli1pswfm29bow6spg463876ojo,3x08e93bhzvmcso73th8fkbze2166q,FkLwAkkf,2020-0188,2020-11-17,15:01:05,15:25:33,NA,incomplete,74,color,1,1,left,Green_Circle_Chess_3.jpg,Green_Triangle_Grid_4.jpg,Red_Circle_Stripes_1.jpg,left,631.4450000063516,true,low,NA,NA,NA,NA,NA,NA,NA,false
FkLwAkkf,3atyli1pswfm29bow6spg463876ojo,3x08e93bhzvmcso73th8fkbze2166q,FkLwAkkf,2020-0188,2020-11-17,15:01:05,15:25:33,NA,incomplete,75,color,1,1,right,Green_Triangle_Chess_4.jpg,Purple_Triangle_Dots_1.jpg,Green_Star_Grid_2.jpg,right,586.74999998766,true,low,NA,NA,NA,NA,NA,NA,NA,false
FkLwAkkf,3atyli1pswfm29bow6spg463876ojo,3x08e93bhzvmcso73th8fkbze2166q,FkLwAkkf,2020-0188,2020-11-17,15:01:05,15:25:33,NA,incomplete,76,color,1,1,right,Red_Star_Stripes_1.jpg,Blue_Star_Grid_3.jpg,Red_Circle_Dots_4.jpg,right,683.099999994738,true,low,NA,NA,NA,NA,NA,NA,NA,false
FkLwAkkf,3atyli1pswfm29bow6spg463876ojo,3x08e93bhzvmcso73th8fkbze2166q,FkLwAkkf,2020-0188,2020-11-17,15:01:05,15:25:33,NA,incomplete,77,color,1,0,right,Purple_Star_Stripes_4.jpg,Green_Star_Grid_3.jpg,Purple_Triangle_Chess_2.jpg,right,930.4450000054203,true,low,NA,NA,NA,NA,NA,NA,NA,false
FkLwAkkf,3atyli1pswfm29bow6spg463876ojo,3x08e93bhzvmcso73th8fkbze2166q,FkLwAkkf,2020-0188,2020-11-17,15:01:05,15:25:33,NA,incomplete,78,color,1,1,right,Red_Plus_Dots_2.jpg,Purple_Plus_Grid_1.jpg,Red_Circle_Stripes_4.jpg,right,784.5300000044517,true,low,NA,NA,NA,NA,NA,NA,NA,false
FkLwAkkf,3atyli1pswfm29bow6spg463876ojo,3x08e93bhzvmcso73th8fkbze2166q,FkLwAkkf,2020-0188,2020-11-17,15:01:05,15:25:33,NA,incomplete,79,color,1,0,left,Purple_Star_Stripes_3.jpg,Purple_Plus_Chess_4.jpg,Green_Star_Dots_2.jpg,left,757.145000010496,true,low,NA,NA,NA,NA,NA,NA,NA,false
FkLwAkkf,3atyli1pswfm29bow6spg463876ojo,3x08e93bhzvmcso73th8fkbze2166q,FkLwAkkf,2020-0188,2020-11-17,15:01:05,15:25:33,NA,incomplete,80,shape,0,1,left,Green_Star_Chess_3.jpg,Red_Star_Stripes_2.jpg,Green_Triangle_Grid_4.jpg,right,799.5650000229944,false,low,NA,NA,NA,NA,NA,NA,NA,false
FkLwAkkf,3atyli1pswfm29bow6spg463876ojo,3x08e93bhzvmcso73th8fkbze2166q,FkLwAkkf,2020-0188,2020-11-17,15:01:05,15:25:33,NA,incomplete,81,shape,0,1,left,Red_Circle_Dots_3.jpg,Green_Circle_Stripes_2.jpg,Red_Plus_Chess_1.jpg,left,822.7250000054482,true,low,NA,NA,NA,NA,NA,NA,NA,false
FkLwAkkf,3atyli1pswfm29bow6spg463876ojo,3x08e93bhzvmcso73th8fkbze2166q,FkLwAkkf,2020-0188,2020-11-17,15:01:05,15:25:33,NA,incomplete,82,shape,0,1,left,Blue_Plus_Grid_3.jpg,Green_Plus_Dots_2.jpg,Blue_Circle_Stripes_4.jpg,left,823.0749999929685,true,low,NA,NA,NA,NA,NA,NA,NA,false
FkLwAkkf,3atyli1pswfm29bow6spg463876ojo,3x08e93bhzvmcso73th8fkbze2166q,FkLwAkkf,2020-0188,2020-11-17,15:01:05,15:25:33,NA,incomplete,83,shape,0,0,left,Purple_Triangle_Grid_1.jpg,Blue_Triangle_Stripes_4.jpg,Purple_Circle_Chess_2.jpg,left,878.1449999951292,true,low,NA,NA,NA,NA,NA,NA,NA,false
FkLwAkkf,3atyli1pswfm29bow6spg463876ojo,3x08e93bhzvmcso73th8fkbze2166q,FkLwAkkf,2020-0188,2020-11-17,15:01:05,15:25:33,NA,incomplete,84,shape,0,1,right,Purple_Plus_Stripes_2.jpg,Purple_Star_Grid_3.jpg,Red_Plus_Dots_1.jpg,right,818.8650000083726,true,low,NA,NA,NA,NA,NA,NA,NA,false
FkLwAkkf,3atyli1pswfm29bow6spg463876ojo,3x08e93bhzvmcso73th8fkbze2166q,FkLwAkkf,2020-0188,2020-11-17,15:01:05,15:25:33,NA,incomplete,85,shape,0,1,left,Green_Circle_Stripes_1.jpg,Purple_Circle_Chess_2.jpg,Green_Plus_Dots_4.jpg,left,737.7100000157952,true,low,NA,NA,NA,NA,NA,NA,NA,false
FkLwAkkf,3atyli1pswfm29bow6spg463876ojo,3x08e93bhzvmcso73th8fkbze2166q,FkLwAkkf,2020-0188,2020-11-17,15:01:05,15:25:33,NA,incomplete,86,shape,0,1,right,Blue_Circle_Grid_3.jpg,Blue_Plus_Stripes_4.jpg,Red_Circle_Chess_2.jpg,right,730.8449999836739,true,low,NA,NA,NA,NA,NA,NA,NA,false
FkLwAkkf,3atyli1pswfm29bow6spg463876ojo,3x08e93bhzvmcso73th8fkbze2166q,FkLwAkkf,2020-0188,2020-11-17,15:01:05,15:25:33,NA,incomplete,87,shape,0,1,right,Green_Circle_Stripes_3.jpg,Green_Plus_Dots_1.jpg,Red_Circle_Grid_4.jpg,right,681.8500000226777,true,low,NA,NA,NA,NA,NA,NA,NA,false
FkLwAkkf,3atyli1pswfm29bow6spg463876ojo,3x08e93bhzvmcso73th8fkbze2166q,FkLwAkkf,2020-0188,2020-11-17,15:01:05,15:25:33,NA,incomplete,88,shape,0,1,right,Purple_Star_Dots_4.jpg,Purple_Circle_Grid_2.jpg,Red_Star_Chess_3.jpg,right,733.669999986887,true,low,NA,NA,NA,NA,NA,NA,NA,false
FkLwAkkf,3atyli1pswfm29bow6spg463876ojo,3x08e93bhzvmcso73th8fkbze2166q,FkLwAkkf,2020-0188,2020-11-17,15:01:05,15:25:33,NA,incomplete,89,shape,0,1,right,Green_Plus_Grid_4.jpg,Green_Star_Chess_3.jpg,Red_Plus_Stripes_2.jpg,right,788.9700000232551,true,low,NA,NA,NA,NA,NA,NA,NA,false
FkLwAkkf,3atyli1pswfm29bow6spg463876ojo,3x08e93bhzvmcso73th8fkbze2166q,FkLwAkkf,2020-0188,2020-11-17,15:01:05,15:25:33,NA,incomplete,90,color,1,1,right,Purple_Star_Grid_2.jpg,Green_Star_Stripes_1.jpg,Purple_Triangle_Chess_4.jpg,left,750.6099999882281,false,low,NA,NA,NA,NA,NA,NA,NA,false
FkLwAkkf,3atyli1pswfm29bow6spg463876ojo,3x08e93bhzvmcso73th8fkbze2166q,FkLwAkkf,2020-0188,2020-11-17,15:01:05,15:25:33,NA,incomplete,91,color,1,1,left,Blue_Circle_Grid_3.jpg,Blue_Triangle_Chess_4.jpg,Red_Circle_Dots_1.jpg,right,795.0700000219513,false,low,NA,NA,NA,NA,NA,NA,NA,false
FkLwAkkf,3atyli1pswfm29bow6spg463876ojo,3x08e93bhzvmcso73th8fkbze2166q,FkLwAkkf,2020-0188,2020-11-17,15:01:05,15:25:33,NA,incomplete,92,color,1,0,left,Blue_Plus_Chess_4.jpg,Blue_Triangle_Grid_1.jpg,Red_Plus_Dots_2.jpg,left,1003.3699999912642,true,low,NA,NA,NA,NA,NA,NA,NA,false
FkLwAkkf,3atyli1pswfm29bow6spg463876ojo,3x08e93bhzvmcso73th8fkbze2166q,FkLwAkkf,2020-0188,2020-11-17,15:01:05,15:25:33,NA,incomplete,93,color,1,0,left,Green_Star_Dots_4.jpg,Green_Plus_Grid_3.jpg,Purple_Star_Chess_2.jpg,left,610.644999978831,true,low,NA,NA,NA,NA,NA,NA,NA,false
FkLwAkkf,3atyli1pswfm29bow6spg463876ojo,3x08e93bhzvmcso73th8fkbze2166q,FkLwAkkf,2020-0188,2020-11-17,15:01:05,15:25:33,NA,incomplete,94,color,1,1,left,Green_Star_Stripes_2.jpg,Green_Plus_Dots_3.jpg,Red_Star_Grid_1.jpg,left,660.9949999838136,true,low,NA,NA,NA,NA,NA,NA,NA,false
FkLwAkkf,3atyli1pswfm29bow6spg463876ojo,3x08e93bhzvmcso73th8fkbze2166q,FkLwAkkf,2020-0188,2020-11-17,15:01:05,15:25:33,NA,incomplete,95,color,1,1,right,Purple_Triangle_Stripes_1.jpg,Red_Triangle_Chess_4.jpg,Purple_Plus_Dots_3.jpg,right,748.9300000015646,true,low,NA,NA,NA,NA,NA,NA,NA,false
FkLwAkkf,3atyli1pswfm29bow6spg463876ojo,3x08e93bhzvmcso73th8fkbze2166q,FkLwAkkf,2020-0188,2020-11-17,15:01:05,15:25:33,NA,incomplete,96,color,1,1,left,Blue_Circle_Grid_3.jpg,Blue_Star_Stripes_2.jpg,Red_Circle_Dots_1.jpg,left,577.4399999936577,true,low,NA,NA,NA,NA,NA,NA,NA,false
FkLwAkkf,3atyli1pswfm29bow6spg463876ojo,3x08e93bhzvmcso73th8fkbze2166q,FkLwAkkf,2020-0188,2020-11-17,15:01:05,15:25:33,NA,incomplete,97,color,1,0,right,Blue_Star_Chess_2.jpg,Red_Star_Stripes_4.jpg,Blue_Plus_Grid_3.jpg,right,546.1899999936577,true,low,NA,NA,NA,NA,NA,NA,NA,false
FkLwAkkf,3atyli1pswfm29bow6spg463876ojo,3x08e93bhzvmcso73th8fkbze2166q,FkLwAkkf,2020-0188,2020-11-17,15:01:05,15:25:33,NA,incomplete,98,color,1,0,right,Green_Circle_Chess_2.jpg,Blue_Circle_Stripes_1.jpg,Green_Plus_Grid_4.jpg,right,688.834999979008,true,low,NA,NA,NA,NA,NA,NA,NA,false
FkLwAkkf,3atyli1pswfm29bow6spg463876ojo,3x08e93bhzvmcso73th8fkbze2166q,FkLwAkkf,2020-0188,2020-11-17,15:01:05,15:25:33,NA,incomplete,99,color,1,1,left,Purple_Triangle_Stripes_1.jpg,Purple_Star_Chess_4.jpg,Green_Triangle_Dots_3.jpg,right,772.8599999973085,false,low,NA,NA,NA,NA,NA,NA,NA,false
FkLwAkkf,3atyli1pswfm29bow6spg463876ojo,3x08e93bhzvmcso73th8fkbze2166q,FkLwAkkf,2020-0188,2020-11-17,15:01:05,15:25:33,NA,incomplete,100,shape,0,1,left,Purple_Plus_Chess_3.jpg,Red_Plus_Dots_1.jpg,Purple_Star_Stripes_4.jpg,left,817.9950000194367,true,low,NA,NA,NA,NA,NA,NA,NA,false
FkLwAkkf,3atyli1pswfm29bow6spg463876ojo,3x08e93bhzvmcso73th8fkbze2166q,FkLwAkkf,2020-0188,2020-11-17,15:01:05,15:25:33,NA,incomplete,101,shape,0,1,left,Blue_Star_Dots_2.jpg,Green_Star_Chess_4.jpg,Blue_Triangle_Grid_3.jpg,left,872.1000000077765,true,low,NA,NA,NA,NA,NA,NA,NA,false
FkLwAkkf,3atyli1pswfm29bow6spg463876ojo,3x08e93bhzvmcso73th8fkbze2166q,FkLwAkkf,2020-0188,2020-11-17,15:01:05,15:25:33,NA,incomplete,102,shape,0,1,right,Blue_Triangle_Grid_4.jpg,Blue_Star_Stripes_3.jpg,Green_Triangle_Dots_1.jpg,right,753.9400000241585,true,low,NA,NA,NA,NA,NA,NA,NA,false
FkLwAkkf,3atyli1pswfm29bow6spg463876ojo,3x08e93bhzvmcso73th8fkbze2166q,FkLwAkkf,2020-0188,2020-11-17,15:01:05,15:25:33,NA,incomplete,103,shape,0,1,right,Red_Triangle_Chess_3.jpg,Red_Star_Stripes_4.jpg,Blue_Triangle_Dots_1.jpg,right,760.5299999995623,true,low,NA,NA,NA,NA,NA,NA,NA,false
FkLwAkkf,3atyli1pswfm29bow6spg463876ojo,3x08e93bhzvmcso73th8fkbze2166q,FkLwAkkf,2020-0188,2020-11-17,15:01:05,15:25:33,NA,incomplete,104,shape,0,1,right,Green_Plus_Grid_4.jpg,Green_Triangle_Stripes_1.jpg,Blue_Plus_Chess_2.jpg,right,688.9549999905284,true,low,NA,NA,NA,NA,NA,NA,NA,false
FkLwAkkf,3atyli1pswfm29bow6spg463876ojo,3x08e93bhzvmcso73th8fkbze2166q,FkLwAkkf,2020-0188,2020-11-17,15:01:05,15:25:33,NA,incomplete,105,shape,0,1,right,Red_Triangle_Dots_1.jpg,Red_Star_Chess_2.jpg,Purple_Triangle_Grid_3.jpg,right,671.8649999820627,true,low,NA,NA,NA,NA,NA,NA,NA,false
FkLwAkkf,3atyli1pswfm29bow6spg463876ojo,3x08e93bhzvmcso73th8fkbze2166q,FkLwAkkf,2020-0188,2020-11-17,15:01:05,15:25:33,NA,incomplete,106,shape,0,1,left,Blue_Circle_Grid_4.jpg,Green_Circle_Stripes_1.jpg,Blue_Star_Dots_3.jpg,left,641.1299999745097,true,low,NA,NA,NA,NA,NA,NA,NA,false
FkLwAkkf,3atyli1pswfm29bow6spg463876ojo,3x08e93bhzvmcso73th8fkbze2166q,FkLwAkkf,2020-0188,2020-11-17,15:01:05,15:25:33,NA,incomplete,107,shape,0,0,right,Green_Star_Dots_2.jpg,Green_Triangle_Grid_1.jpg,Purple_Star_Chess_3.jpg,right,633.9549999975134,true,low,NA,NA,NA,NA,NA,NA,NA,false
FkLwAkkf,3atyli1pswfm29bow6spg463876ojo,3x08e93bhzvmcso73th8fkbze2166q,FkLwAkkf,2020-0188,2020-11-17,15:01:05,15:25:33,NA,incomplete,108,shape,0,0,left,Blue_Plus_Chess_1.jpg,Purple_Plus_Stripes_3.jpg,Blue_Star_Dots_2.jpg,left,816.949999978533,true,low,NA,NA,NA,NA,NA,NA,NA,false
FkLwAkkf,3atyli1pswfm29bow6spg463876ojo,3x08e93bhzvmcso73th8fkbze2166q,FkLwAkkf,2020-0188,2020-11-17,15:01:05,15:25:33,NA,incomplete,109,shape,0,1,right,Blue_Plus_Grid_3.jpg,Blue_Star_Stripes_4.jpg,Purple_Plus_Chess_1.jpg,left,919.2500000062864,false,low,NA,NA,NA,NA,NA,NA,NA,false
FkLwAkkf,3atyli1pswfm29bow6spg463876ojo,3x08e93bhzvmcso73th8fkbze2166q,FkLwAkkf,2020-0188,2020-11-17,15:01:05,15:25:33,NA,incomplete,110,color,1,0,right,Purple_Circle_Chess_2.jpg,Blue_Circle_Dots_4.jpg,Purple_Plus_Grid_3.jpg,right,678.249999997206,true,low,NA,NA,NA,NA,NA,NA,NA,false
FkLwAkkf,3atyli1pswfm29bow6spg463876ojo,3x08e93bhzvmcso73th8fkbze2166q,FkLwAkkf,2020-0188,2020-11-17,15:01:05,15:25:33,NA,incomplete,111,color,1,1,left,Blue_Plus_Stripes_4.jpg,Blue_Circle_Dots_1.jpg,Red_Plus_Grid_3.jpg,right,769.7749999933876,false,low,NA,NA,NA,NA,NA,NA,NA,false
FkLwAkkf,3atyli1pswfm29bow6spg463876ojo,3x08e93bhzvmcso73th8fkbze2166q,FkLwAkkf,2020-0188,2020-11-17,15:01:05,15:25:33,NA,incomplete,112,color,1,1,left,Red_Triangle_Grid_2.jpg,Red_Star_Stripes_3.jpg,Blue_Triangle_Dots_1.jpg,right,862.6450000156183,false,low,NA,NA,NA,NA,NA,NA,NA,false
FkLwAkkf,3atyli1pswfm29bow6spg463876ojo,3x08e93bhzvmcso73th8fkbze2166q,FkLwAkkf,2020-0188,2020-11-17,15:01:05,15:25:33,NA,incomplete,113,color,1,1,left,Blue_Star_Grid_3.jpg,Blue_Plus_Dots_1.jpg,Red_Star_Chess_4.jpg,right,1076.9499999878462,false,low,NA,NA,NA,NA,NA,NA,NA,false
FkLwAkkf,3atyli1pswfm29bow6spg463876ojo,3x08e93bhzvmcso73th8fkbze2166q,FkLwAkkf,2020-0188,2020-11-17,15:01:05,15:25:33,NA,incomplete,114,color,1,0,right,Purple_Star_Chess_1.jpg,Green_Star_Stripes_3.jpg,Purple_Triangle_Dots_4.jpg,right,847.7750000020023,true,low,NA,NA,NA,NA,NA,NA,NA,false
FkLwAkkf,3atyli1pswfm29bow6spg463876ojo,3x08e93bhzvmcso73th8fkbze2166q,FkLwAkkf,2020-0188,2020-11-17,15:01:05,15:25:33,NA,incomplete,115,color,1,1,right,Purple_Plus_Chess_3.jpg,Green_Plus_Stripes_2.jpg,Purple_Star_Dots_4.jpg,right,476.9749999977648,true,low,NA,NA,NA,NA,NA,NA,NA,false
FkLwAkkf,3atyli1pswfm29bow6spg463876ojo,3x08e93bhzvmcso73th8fkbze2166q,FkLwAkkf,2020-0188,2020-11-17,15:01:05,15:25:33,NA,incomplete,116,color,1,1,left,Red_Triangle_Grid_2.jpg,Red_Star_Chess_1.jpg,Green_Triangle_Dots_3.jpg,right,915.3099999821279,false,low,NA,NA,NA,NA,NA,NA,NA,false
FkLwAkkf,3atyli1pswfm29bow6spg463876ojo,3x08e93bhzvmcso73th8fkbze2166q,FkLwAkkf,2020-0188,2020-11-17,15:01:05,15:25:33,NA,incomplete,117,color,1,1,left,Green_Star_Stripes_3.jpg,Green_Plus_Dots_1.jpg,Blue_Star_Grid_2.jpg,right,748.5699999961071,false,low,NA,NA,NA,NA,NA,NA,NA,false
FkLwAkkf,3atyli1pswfm29bow6spg463876ojo,3x08e93bhzvmcso73th8fkbze2166q,FkLwAkkf,2020-0188,2020-11-17,15:01:05,15:25:33,NA,incomplete,118,color,1,1,left,Green_Star_Chess_2.jpg,Green_Plus_Dots_1.jpg,Blue_Star_Stripes_3.jpg,right,593.1399999826681,false,low,NA,NA,NA,NA,NA,NA,NA,false
FkLwAkkf,3atyli1pswfm29bow6spg463876ojo,3x08e93bhzvmcso73th8fkbze2166q,FkLwAkkf,2020-0188,2020-11-17,15:01:05,15:25:33,NA,incomplete,119,color,1,1,right,Green_Plus_Stripes_1.jpg,Blue_Plus_Grid_4.jpg,Green_Triangle_Chess_2.jpg,right,764.0850000025239,true,low,NA,NA,NA,NA,NA,NA,NA,false
FkLwAkkf,3atyli1pswfm29bow6spg463876ojo,3x08e93bhzvmcso73th8fkbze2166q,FkLwAkkf,2020-0188,2020-11-17,15:01:05,15:25:33,NA,incomplete,120,gender,2,1,right,C_M_06.jpg,C_F_09.jpg,A_M_10.jpg,NA,NA,NA,low,NA,NA,NA,NA,NA,NA,NA,false
FkLwAkkf,3atyli1pswfm29bow6spg463876ojo,3x08e93bhzvmcso73th8fkbze2166q,FkLwAkkf,2020-0188,2020-11-17,15:01:05,15:25:33,NA,incomplete,121,gender,2,0,left,A_F_03.jpg,C_F_01.jpg,A_M_11.jpg,left,1872.9699999967124,true,low,NA,NA,NA,NA,NA,NA,NA,false
FkLwAkkf,3atyli1pswfm29bow6spg463876ojo,3x08e93bhzvmcso73th8fkbze2166q,FkLwAkkf,2020-0188,2020-11-17,15:01:05,15:25:33,NA,incomplete,122,gender,2,1,left,C_F_12.jpg,A_F_13.jpg,C_M_07.jpg,left,834.3500000191852,true,low,NA,NA,NA,NA,NA,NA,NA,false
FkLwAkkf,3atyli1pswfm29bow6spg463876ojo,3x08e93bhzvmcso73th8fkbze2166q,FkLwAkkf,2020-0188,2020-11-17,15:01:05,15:25:33,NA,incomplete,123,gender,2,1,left,C_F_14.jpg,A_F_01.jpg,C_M_06.jpg,left,698.5200000053737,true,low,NA,NA,NA,NA,NA,NA,NA,false
FkLwAkkf,3atyli1pswfm29bow6spg463876ojo,3x08e93bhzvmcso73th8fkbze2166q,FkLwAkkf,2020-0188,2020-11-17,15:01:05,15:25:33,NA,incomplete,124,gender,2,1,right,A_M_13.jpg,A_F_03.jpg,C_M_16.jpg,right,1019.9199999915436,true,low,NA,NA,NA,NA,NA,NA,NA,false
FkLwAkkf,3atyli1pswfm29bow6spg463876ojo,3x08e93bhzvmcso73th8fkbze2166q,FkLwAkkf,2020-0188,2020-11-17,15:01:05,15:25:33,NA,incomplete,125,gender,2,1,right,C_M_10.jpg,C_F_09.jpg,A_M_11.jpg,right,779.8450000118464,true,low,NA,NA,NA,NA,NA,NA,NA,false
FkLwAkkf,3atyli1pswfm29bow6spg463876ojo,3x08e93bhzvmcso73th8fkbze2166q,FkLwAkkf,2020-0188,2020-11-17,15:01:05,15:25:33,NA,incomplete,126,gender,2,0,right,C_M_02.jpg,C_F_01.jpg,A_M_04.jpg,right,774.3999999947846,true,low,NA,NA,NA,NA,NA,NA,NA,false
FkLwAkkf,3atyli1pswfm29bow6spg463876ojo,3x08e93bhzvmcso73th8fkbze2166q,FkLwAkkf,2020-0188,2020-11-17,15:01:05,15:25:33,NA,incomplete,127,gender,2,1,right,C_M_05.jpg,C_F_04.jpg,A_M_03.jpg,right,756.4549999951851,true,low,NA,NA,NA,NA,NA,NA,NA,false
FkLwAkkf,3atyli1pswfm29bow6spg463876ojo,3x08e93bhzvmcso73th8fkbze2166q,FkLwAkkf,2020-0188,2020-11-17,15:01:05,15:25:33,NA,incomplete,128,gender,2,1,right,A_F_09.jpg,A_M_06.jpg,C_F_16.jpg,right,1015.7050000270829,true,low,NA,NA,NA,NA,NA,NA,NA,false
FkLwAkkf,3atyli1pswfm29bow6spg463876ojo,3x08e93bhzvmcso73th8fkbze2166q,FkLwAkkf,2020-0188,2020-11-17,15:01:05,15:25:33,NA,incomplete,129,gender,2,1,left,A_F_03.jpg,C_F_01.jpg,A_M_04.jpg,left,705.4950000019744,true,low,NA,NA,NA,NA,NA,NA,NA,false
FkLwAkkf,3atyli1pswfm29bow6spg463876ojo,3x08e93bhzvmcso73th8fkbze2166q,FkLwAkkf,2020-0188,2020-11-17,15:01:05,15:25:33,NA,incomplete,130,gender,2,1,right,C_M_11.jpg,C_F_05.jpg,A_M_07.jpg,right,955.3849999792874,true,low,NA,NA,NA,NA,NA,NA,NA,false
FkLwAkkf,3atyli1pswfm29bow6spg463876ojo,3x08e93bhzvmcso73th8fkbze2166q,FkLwAkkf,2020-0188,2020-11-17,15:01:05,15:25:33,NA,incomplete,131,gender,2,1,right,C_M_12.jpg,C_F_13.jpg,A_M_15.jpg,right,803.1900000059977,true,low,NA,NA,NA,NA,NA,NA,NA,false
FkLwAkkf,3atyli1pswfm29bow6spg463876ojo,3x08e93bhzvmcso73th8fkbze2166q,FkLwAkkf,2020-0188,2020-11-17,15:01:05,15:25:33,NA,incomplete,132,gender,2,1,left,C_F_02.jpg,A_F_03.jpg,C_M_15.jpg,right,814.120000024559,false,low,NA,NA,NA,NA,NA,NA,NA,false
FkLwAkkf,3atyli1pswfm29bow6spg463876ojo,3x08e93bhzvmcso73th8fkbze2166q,FkLwAkkf,2020-0188,2020-11-17,15:01:05,15:25:33,NA,incomplete,133,gender,2,1,right,A_M_05.jpg,A_F_10.jpg,C_M_12.jpg,right,905.3100000019185,true,low,NA,NA,NA,NA,NA,NA,NA,false
FkLwAkkf,3atyli1pswfm29bow6spg463876ojo,3x08e93bhzvmcso73th8fkbze2166q,FkLwAkkf,2020-0188,2020-11-17,15:01:05,15:25:33,NA,incomplete,134,gender,2,1,left,A_F_03.jpg,C_F_02.jpg,A_M_11.jpg,left,919.7649999987334,true,low,NA,NA,NA,NA,NA,NA,NA,false
FkLwAkkf,3atyli1pswfm29bow6spg463876ojo,3x08e93bhzvmcso73th8fkbze2166q,FkLwAkkf,2020-0188,2020-11-17,15:01:05,15:25:33,NA,incomplete,135,gender,2,1,left,A_F_14.jpg,C_F_15.jpg,A_M_09.jpg,left,865.4249999963213,true,low,NA,NA,NA,NA,NA,NA,NA,false
FkLwAkkf,3atyli1pswfm29bow6spg463876ojo,3x08e93bhzvmcso73th8fkbze2166q,FkLwAkkf,2020-0188,2020-11-17,15:01:05,15:25:33,NA,incomplete,136,gender,2,0,right,C_M_07.jpg,C_F_15.jpg,A_M_10.jpg,right,570.7949999778066,true,low,NA,NA,NA,NA,NA,NA,NA,false
FkLwAkkf,3atyli1pswfm29bow6spg463876ojo,3x08e93bhzvmcso73th8fkbze2166q,FkLwAkkf,2020-0188,2020-11-17,15:01:05,15:25:33,NA,incomplete,137,gender,2,1,right,C_M_08.jpg,C_F_10.jpg,A_M_06.jpg,right,662.4149999988731,true,low,NA,NA,NA,NA,NA,NA,NA,false
FkLwAkkf,3atyli1pswfm29bow6spg463876ojo,3x08e93bhzvmcso73th8fkbze2166q,FkLwAkkf,2020-0188,2020-11-17,15:01:05,15:25:33,NA,incomplete,138,gender,2,1,left,A_F_11.jpg,C_F_06.jpg,A_M_12.jpg,right,861.750000010943,false,low,NA,NA,NA,NA,NA,NA,NA,false
FkLwAkkf,3atyli1pswfm29bow6spg463876ojo,3x08e93bhzvmcso73th8fkbze2166q,FkLwAkkf,2020-0188,2020-11-17,15:01:05,15:25:33,NA,incomplete,139,gender,2,1,right,A_F_11.jpg,A_M_02.jpg,C_F_15.jpg,right,1064.024999999674,true,low,NA,NA,NA,NA,NA,NA,NA,false
FkLwAkkf,3atyli1pswfm29bow6spg463876ojo,3x08e93bhzvmcso73th8fkbze2166q,FkLwAkkf,2020-0188,2020-11-17,15:01:05,15:25:33,NA,incomplete,140,race,3,0,left,A_M_09.jpg,A_F_15.jpg,C_M_01.jpg,right,691.8500000028871,false,low,NA,NA,NA,NA,NA,NA,NA,false
FkLwAkkf,3atyli1pswfm29bow6spg463876ojo,3x08e93bhzvmcso73th8fkbze2166q,FkLwAkkf,2020-0188,2020-11-17,15:01:05,15:25:33,NA,incomplete,141,race,3,1,left,A_F_08.jpg,A_M_02.jpg,C_F_11.jpg,right,822.2850000020117,false,low,NA,NA,NA,NA,NA,NA,NA,false
FkLwAkkf,3atyli1pswfm29bow6spg463876ojo,3x08e93bhzvmcso73th8fkbze2166q,FkLwAkkf,2020-0188,2020-11-17,15:01:05,15:25:33,NA,incomplete,142,race,3,1,left,C_M_12.jpg,C_F_16.jpg,A_M_13.jpg,right,1001.9500000053085,false,low,NA,NA,NA,NA,NA,NA,NA,false
FkLwAkkf,3atyli1pswfm29bow6spg463876ojo,3x08e93bhzvmcso73th8fkbze2166q,FkLwAkkf,2020-0188,2020-11-17,15:01:05,15:25:33,NA,incomplete,143,race,3,0,left,A_F_13.jpg,A_M_15.jpg,C_F_06.jpg,left,1241.8400000024121,true,low,NA,NA,NA,NA,NA,NA,NA,false
FkLwAkkf,3atyli1pswfm29bow6spg463876ojo,3x08e93bhzvmcso73th8fkbze2166q,FkLwAkkf,2020-0188,2020-11-17,15:01:05,15:25:33,NA,incomplete,144,race,3,1,left,C_M_06.jpg,C_F_04.jpg,A_M_15.jpg,right,930.305000016233,false,low,NA,NA,NA,NA,NA,NA,NA,false
FkLwAkkf,3atyli1pswfm29bow6spg463876ojo,3x08e93bhzvmcso73th8fkbze2166q,FkLwAkkf,2020-0188,2020-11-17,15:01:05,15:25:33,NA,incomplete,145,race,3,1,right,A_F_06.jpg,C_F_11.jpg,A_M_12.jpg,right,1444.5649999834131,true,low,NA,NA,NA,NA,NA,NA,NA,false
FkLwAkkf,3atyli1pswfm29bow6spg463876ojo,3x08e93bhzvmcso73th8fkbze2166q,FkLwAkkf,2020-0188,2020-11-17,15:01:05,15:25:33,NA,incomplete,146,race,3,1,left,A_M_14.jpg,A_F_12.jpg,C_M_10.jpg,left,1107.0349999936298,true,low,NA,NA,NA,NA,NA,NA,NA,false
FkLwAkkf,3atyli1pswfm29bow6spg463876ojo,3x08e93bhzvmcso73th8fkbze2166q,FkLwAkkf,2020-0188,2020-11-17,15:01:05,15:25:33,NA,incomplete,147,race,3,1,right,C_M_08.jpg,A_M_15.jpg,C_F_04.jpg,left,1082.5450000120327,false,low,NA,NA,NA,NA,NA,NA,NA,false
FkLwAkkf,3atyli1pswfm29bow6spg463876ojo,3x08e93bhzvmcso73th8fkbze2166q,FkLwAkkf,2020-0188,2020-11-17,15:01:05,15:25:33,NA,incomplete,148,race,3,1,right,C_M_08.jpg,A_M_12.jpg,C_F_06.jpg,right,1182.2549999924377,true,low,NA,NA,NA,NA,NA,NA,NA,false
FkLwAkkf,3atyli1pswfm29bow6spg463876ojo,3x08e93bhzvmcso73th8fkbze2166q,FkLwAkkf,2020-0188,2020-11-17,15:01:05,15:25:33,NA,incomplete,149,race,3,1,left,A_F_01.jpg,A_M_02.jpg,C_F_11.jpg,left,1182.104999985313,true,low,NA,NA,NA,NA,NA,NA,NA,false
FkLwAkkf,3atyli1pswfm29bow6spg463876ojo,3x08e93bhzvmcso73th8fkbze2166q,FkLwAkkf,2020-0188,2020-11-17,15:01:05,15:25:33,NA,incomplete,150,race,3,1,right,C_M_01.jpg,A_M_08.jpg,C_F_15.jpg,right,1175.4950000031386,true,low,NA,NA,NA,NA,NA,NA,NA,false
FkLwAkkf,3atyli1pswfm29bow6spg463876ojo,3x08e93bhzvmcso73th8fkbze2166q,FkLwAkkf,2020-0188,2020-11-17,15:01:05,15:25:33,NA,incomplete,151,race,3,1,left,A_F_12.jpg,A_M_05.jpg,C_F_07.jpg,left,1331.880000012461,true,low,NA,NA,NA,NA,NA,NA,NA,false
FkLwAkkf,3atyli1pswfm29bow6spg463876ojo,3x08e93bhzvmcso73th8fkbze2166q,FkLwAkkf,2020-0188,2020-11-17,15:01:05,15:25:33,NA,incomplete,152,race,3,1,right,A_F_03.jpg,C_F_13.jpg,A_M_02.jpg,right,988.9450000191573,true,low,NA,NA,NA,NA,NA,NA,NA,false
FkLwAkkf,3atyli1pswfm29bow6spg463876ojo,3x08e93bhzvmcso73th8fkbze2166q,FkLwAkkf,2020-0188,2020-11-17,15:01:05,15:25:33,NA,incomplete,153,race,3,1,right,A_M_03.jpg,C_M_10.jpg,A_F_09.jpg,right,1044.9350000126287,true,low,NA,NA,NA,NA,NA,NA,NA,false
FkLwAkkf,3atyli1pswfm29bow6spg463876ojo,3x08e93bhzvmcso73th8fkbze2166q,FkLwAkkf,2020-0188,2020-11-17,15:01:05,15:25:33,NA,incomplete,154,race,3,1,right,C_M_13.jpg,A_M_04.jpg,C_F_10.jpg,right,1150.0300000188872,true,low,NA,NA,NA,NA,NA,NA,NA,false
FkLwAkkf,3atyli1pswfm29bow6spg463876ojo,3x08e93bhzvmcso73th8fkbze2166q,FkLwAkkf,2020-0188,2020-11-17,15:01:05,15:25:33,NA,incomplete,155,race,3,0,right,A_M_01.jpg,C_M_03.jpg,A_F_02.jpg,right,1014.72500001546,true,low,NA,NA,NA,NA,NA,NA,NA,false
FkLwAkkf,3atyli1pswfm29bow6spg463876ojo,3x08e93bhzvmcso73th8fkbze2166q,FkLwAkkf,2020-0188,2020-11-17,15:01:05,15:25:33,NA,incomplete,156,race,3,1,right,C_M_07.jpg,A_M_10.jpg,C_F_16.jpg,left,875.514999992447,false,low,NA,NA,NA,NA,NA,NA,NA,false
FkLwAkkf,3atyli1pswfm29bow6spg463876ojo,3x08e93bhzvmcso73th8fkbze2166q,FkLwAkkf,2020-0188,2020-11-17,15:01:05,15:25:33,NA,incomplete,157,race,3,0,right,A_F_04.jpg,C_F_05.jpg,A_M_16.jpg,left,1078.6000000080094,false,low,NA,NA,NA,NA,NA,NA,NA,false
FkLwAkkf,3atyli1pswfm29bow6spg463876ojo,3x08e93bhzvmcso73th8fkbze2166q,FkLwAkkf,2020-0188,2020-11-17,15:01:05,15:25:33,NA,incomplete,158,race,3,1,right,A_M_08.jpg,C_M_09.jpg,A_F_02.jpg,left,1400.7649999985006,false,low,NA,NA,NA,NA,NA,NA,NA,false
FkLwAkkf,3atyli1pswfm29bow6spg463876ojo,3x08e93bhzvmcso73th8fkbze2166q,FkLwAkkf,2020-0188,2020-11-17,15:01:05,15:25:33,NA,incomplete,159,race,3,1,right,C_M_04.jpg,A_M_01.jpg,C_F_09.jpg,right,1392.0250000082888,true,low,NA,NA,NA,NA,NA,NA,NA,false
FkLwAkkf,3atyli1pswfm29bow6spg463876ojo,3x08e93bhzvmcso73th8fkbze2166q,FkLwAkkf,2020-0188,2020-11-17,15:01:05,15:25:33,NA,incomplete,160,gender,2,0,left,A_M_04.jpg,C_M_06.jpg,A_F_05.jpg,right,1089.8500000184868,false,low,NA,NA,NA,NA,NA,NA,NA,false
FkLwAkkf,3atyli1pswfm29bow6spg463876ojo,3x08e93bhzvmcso73th8fkbze2166q,FkLwAkkf,2020-0188,2020-11-17,15:01:05,15:25:33,NA,incomplete,161,gender,2,1,right,A_M_07.jpg,A_F_08.jpg,C_M_04.jpg,left,936.214999994263,false,low,NA,NA,NA,NA,NA,NA,NA,false
FkLwAkkf,3atyli1pswfm29bow6spg463876ojo,3x08e93bhzvmcso73th8fkbze2166q,FkLwAkkf,2020-0188,2020-11-17,15:01:05,15:25:33,NA,incomplete,162,gender,2,1,left,A_M_05.jpg,C_M_13.jpg,A_F_03.jpg,right,892.8299999970477,false,low,NA,NA,NA,NA,NA,NA,NA,false
FkLwAkkf,3atyli1pswfm29bow6spg463876ojo,3x08e93bhzvmcso73th8fkbze2166q,FkLwAkkf,2020-0188,2020-11-17,15:01:05,15:25:33,NA,incomplete,163,gender,2,0,right,A_M_02.jpg,A_F_03.jpg,C_M_12.jpg,left,1306.5549999882933,false,low,NA,NA,NA,NA,NA,NA,NA,false
FkLwAkkf,3atyli1pswfm29bow6spg463876ojo,3x08e93bhzvmcso73th8fkbze2166q,FkLwAkkf,2020-0188,2020-11-17,15:01:05,15:25:33,NA,incomplete,164,gender,2,1,left,C_F_07.jpg,A_F_06.jpg,C_M_13.jpg,right,1613.180000014836,false,low,NA,NA,NA,NA,NA,NA,NA,false
FkLwAkkf,3atyli1pswfm29bow6spg463876ojo,3x08e93bhzvmcso73th8fkbze2166q,FkLwAkkf,2020-0188,2020-11-17,15:01:05,15:25:33,NA,incomplete,165,gender,2,0,left,A_M_15.jpg,C_M_04.jpg,A_F_10.jpg,right,1052.7299999957904,false,low,NA,NA,NA,NA,NA,NA,NA,false
FkLwAkkf,3atyli1pswfm29bow6spg463876ojo,3x08e93bhzvmcso73th8fkbze2166q,FkLwAkkf,2020-0188,2020-11-17,15:01:05,15:25:33,NA,incomplete,166,gender,2,1,right,C_M_10.jpg,C_F_01.jpg,A_M_06.jpg,left,919.5249999756925,false,low,NA,NA,NA,NA,NA,NA,NA,false
FkLwAkkf,3atyli1pswfm29bow6spg463876ojo,3x08e93bhzvmcso73th8fkbze2166q,FkLwAkkf,2020-0188,2020-11-17,15:01:05,15:25:33,NA,incomplete,167,gender,2,0,right,C_M_01.jpg,C_F_10.jpg,A_M_07.jpg,left,1048.8400000031106,false,low,NA,NA,NA,NA,NA,NA,NA,false
FkLwAkkf,3atyli1pswfm29bow6spg463876ojo,3x08e93bhzvmcso73th8fkbze2166q,FkLwAkkf,2020-0188,2020-11-17,15:01:05,15:25:33,NA,incomplete,168,gender,2,1,left,C_M_12.jpg,A_M_07.jpg,C_F_13.jpg,right,784.8050000029616,false,low,NA,NA,NA,NA,NA,NA,NA,false
FkLwAkkf,3atyli1pswfm29bow6spg463876ojo,3x08e93bhzvmcso73th8fkbze2166q,FkLwAkkf,2020-0188,2020-11-17,15:01:05,15:25:33,NA,incomplete,169,gender,2,1,right,A_M_10.jpg,A_F_03.jpg,C_M_01.jpg,left,870.4800000123214,false,low,NA,NA,NA,NA,NA,NA,NA,false
FkLwAkkf,3atyli1pswfm29bow6spg463876ojo,3x08e93bhzvmcso73th8fkbze2166q,FkLwAkkf,2020-0188,2020-11-17,15:01:05,15:25:33,NA,incomplete,170,gender,2,1,left,C_M_03.jpg,A_M_10.jpg,C_F_15.jpg,right,994.6649999765214,false,low,NA,NA,NA,NA,NA,NA,NA,false
FkLwAkkf,3atyli1pswfm29bow6spg463876ojo,3x08e93bhzvmcso73th8fkbze2166q,FkLwAkkf,2020-0188,2020-11-17,15:01:05,15:25:33,NA,incomplete,171,gender,2,1,right,C_F_07.jpg,C_M_02.jpg,A_F_12.jpg,left,1047.164999996312,false,low,NA,NA,NA,NA,NA,NA,NA,false
FkLwAkkf,3atyli1pswfm29bow6spg463876ojo,3x08e93bhzvmcso73th8fkbze2166q,FkLwAkkf,2020-0188,2020-11-17,15:01:05,15:25:33,NA,incomplete,172,gender,2,1,right,C_F_05.jpg,C_M_01.jpg,A_F_08.jpg,left,1084.3049999966752,false,low,NA,NA,NA,NA,NA,NA,NA,false
FkLwAkkf,3atyli1pswfm29bow6spg463876ojo,3x08e93bhzvmcso73th8fkbze2166q,FkLwAkkf,2020-0188,2020-11-17,15:01:05,15:25:33,NA,incomplete,173,gender,2,0,right,A_M_04.jpg,A_F_05.jpg,C_M_07.jpg,right,1230.2199999976438,true,low,NA,NA,NA,NA,NA,NA,NA,false
FkLwAkkf,3atyli1pswfm29bow6spg463876ojo,3x08e93bhzvmcso73th8fkbze2166q,FkLwAkkf,2020-0188,2020-11-17,15:01:05,15:25:33,NA,incomplete,174,gender,2,1,right,C_M_07.jpg,C_F_01.jpg,A_M_08.jpg,right,852.759999979753,true,low,NA,NA,NA,NA,NA,NA,NA,false
FkLwAkkf,3atyli1pswfm29bow6spg463876ojo,3x08e93bhzvmcso73th8fkbze2166q,FkLwAkkf,2020-0188,2020-11-17,15:01:05,15:25:33,NA,incomplete,175,gender,2,1,right,C_M_07.jpg,C_F_08.jpg,A_M_04.jpg,right,713.0550000001676,true,low,NA,NA,NA,NA,NA,NA,NA,false
FkLwAkkf,3atyli1pswfm29bow6spg463876ojo,3x08e93bhzvmcso73th8fkbze2166q,FkLwAkkf,2020-0188,2020-11-17,15:01:05,15:25:33,NA,incomplete,176,gender,2,1,left,A_M_10.jpg,C_M_06.jpg,A_F_09.jpg,left,908.7449999933597,true,low,NA,NA,NA,NA,NA,NA,NA,false
FkLwAkkf,3atyli1pswfm29bow6spg463876ojo,3x08e93bhzvmcso73th8fkbze2166q,FkLwAkkf,2020-0188,2020-11-17,15:01:05,15:25:33,NA,incomplete,177,gender,2,1,right,C_F_16.jpg,C_M_08.jpg,A_F_12.jpg,right,861.0650000046007,true,low,NA,NA,NA,NA,NA,NA,NA,false
FkLwAkkf,3atyli1pswfm29bow6spg463876ojo,3x08e93bhzvmcso73th8fkbze2166q,FkLwAkkf,2020-0188,2020-11-17,15:01:05,15:25:33,NA,incomplete,178,gender,2,1,left,C_F_16.jpg,A_F_07.jpg,C_M_01.jpg,left,773.0100000044331,true,low,NA,NA,NA,NA,NA,NA,NA,false
FkLwAkkf,3atyli1pswfm29bow6spg463876ojo,3x08e93bhzvmcso73th8fkbze2166q,FkLwAkkf,2020-0188,2020-11-17,15:01:05,15:25:33,NA,incomplete,179,gender,2,0,right,C_M_05.jpg,C_F_16.jpg,A_M_09.jpg,right,809.4149999960791,true,low,NA,NA,NA,NA,NA,NA,NA,false
FkLwAkkf,3atyli1pswfm29bow6spg463876ojo,3x08e93bhzvmcso73th8fkbze2166q,FkLwAkkf,2020-0188,2020-11-17,15:01:05,15:25:33,NA,incomplete,180,race,3,1,left,C_F_01.jpg,C_M_08.jpg,A_F_05.jpg,right,1053.1499999924563,false,low,NA,NA,NA,NA,NA,NA,NA,false
FkLwAkkf,3atyli1pswfm29bow6spg463876ojo,3x08e93bhzvmcso73th8fkbze2166q,FkLwAkkf,2020-0188,2020-11-17,15:01:05,15:25:33,NA,incomplete,181,race,3,1,left,A_M_12.jpg,A_F_01.jpg,C_M_09.jpg,left,948.5899999854155,true,low,NA,NA,NA,NA,NA,NA,NA,false
FkLwAkkf,3atyli1pswfm29bow6spg463876ojo,3x08e93bhzvmcso73th8fkbze2166q,FkLwAkkf,2020-0188,2020-11-17,15:01:05,15:25:33,NA,incomplete,182,race,3,1,left,C_M_10.jpg,C_F_15.jpg,A_M_04.jpg,left,1332.2000000043772,true,low,NA,NA,NA,NA,NA,NA,NA,false
FkLwAkkf,3atyli1pswfm29bow6spg463876ojo,3x08e93bhzvmcso73th8fkbze2166q,FkLwAkkf,2020-0188,2020-11-17,15:01:05,15:25:33,NA,incomplete,183,race,3,1,left,A_F_05.jpg,A_M_01.jpg,C_F_09.jpg,right,1201.215000008233,false,low,NA,NA,NA,NA,NA,NA,NA,false
FkLwAkkf,3atyli1pswfm29bow6spg463876ojo,3x08e93bhzvmcso73th8fkbze2166q,FkLwAkkf,2020-0188,2020-11-17,15:01:05,15:25:33,NA,incomplete,184,race,3,1,left,A_F_07.jpg,A_M_15.jpg,C_F_09.jpg,left,1019.7099999932107,true,low,NA,NA,NA,NA,NA,NA,NA,false
FkLwAkkf,3atyli1pswfm29bow6spg463876ojo,3x08e93bhzvmcso73th8fkbze2166q,FkLwAkkf,2020-0188,2020-11-17,15:01:05,15:25:33,NA,incomplete,185,race,3,1,left,C_F_03.jpg,C_M_01.jpg,A_F_09.jpg,none,0,false,low,NA,NA,NA,NA,NA,NA,NA,false
FkLwAkkf,3atyli1pswfm29bow6spg463876ojo,3x08e93bhzvmcso73th8fkbze2166q,FkLwAkkf,2020-0188,2020-11-17,15:01:05,15:25:33,NA,incomplete,186,race,3,1,right,C_M_06.jpg,A_M_12.jpg,C_F_01.jpg,right,813.5100000072271,true,low,NA,NA,NA,NA,NA,NA,NA,false
FkLwAkkf,3atyli1pswfm29bow6spg463876ojo,3x08e93bhzvmcso73th8fkbze2166q,FkLwAkkf,2020-0188,2020-11-17,15:01:05,15:25:33,NA,incomplete,187,race,3,1,right,C_F_15.jpg,A_F_04.jpg,C_M_16.jpg,left,1383.8450000039302,false,low,NA,NA,NA,NA,NA,NA,NA,false
FkLwAkkf,3atyli1pswfm29bow6spg463876ojo,3x08e93bhzvmcso73th8fkbze2166q,FkLwAkkf,2020-0188,2020-11-17,15:01:05,15:25:33,NA,incomplete,188,race,3,1,left,A_F_11.jpg,A_M_09.jpg,C_F_06.jpg,left,798.1399999989662,true,low,NA,NA,NA,NA,NA,NA,NA,false
FkLwAkkf,3atyli1pswfm29bow6spg463876ojo,3x08e93bhzvmcso73th8fkbze2166q,FkLwAkkf,2020-0188,2020-11-17,15:01:05,15:25:33,NA,incomplete,189,race,3,0,left,A_F_11.jpg,A_M_03.jpg,C_F_04.jpg,left,847.1450000070035,true,low,NA,NA,NA,NA,NA,NA,NA,false
FkLwAkkf,3atyli1pswfm29bow6spg463876ojo,3x08e93bhzvmcso73th8fkbze2166q,FkLwAkkf,2020-0188,2020-11-17,15:01:05,15:25:33,NA,incomplete,190,race,3,1,left,C_M_03.jpg,C_F_07.jpg,A_M_02.jpg,left,1559.5999999786727,true,low,NA,NA,NA,NA,NA,NA,NA,false
FkLwAkkf,3atyli1pswfm29bow6spg463876ojo,3x08e93bhzvmcso73th8fkbze2166q,FkLwAkkf,2020-0188,2020-11-17,15:01:05,15:25:33,NA,incomplete,191,race,3,1,right,A_F_08.jpg,C_F_15.jpg,A_M_06.jpg,right,1166.319999989355,true,low,NA,NA,NA,NA,NA,NA,NA,false
FkLwAkkf,3atyli1pswfm29bow6spg463876ojo,3x08e93bhzvmcso73th8fkbze2166q,FkLwAkkf,2020-0188,2020-11-17,15:01:05,15:25:33,NA,incomplete,192,race,3,0,right,C_F_11.jpg,A_F_06.jpg,C_M_02.jpg,left,1338.385000010021,false,low,NA,NA,NA,NA,NA,NA,NA,false
FkLwAkkf,3atyli1pswfm29bow6spg463876ojo,3x08e93bhzvmcso73th8fkbze2166q,FkLwAkkf,2020-0188,2020-11-17,15:01:05,15:25:33,NA,incomplete,193,race,3,1,right,C_M_05.jpg,A_M_10.jpg,C_F_02.jpg,right,1205.0600000075065,true,low,NA,NA,NA,NA,NA,NA,NA,false
FkLwAkkf,3atyli1pswfm29bow6spg463876ojo,3x08e93bhzvmcso73th8fkbze2166q,FkLwAkkf,2020-0188,2020-11-17,15:01:05,15:25:33,NA,incomplete,194,race,3,1,left,A_M_16.jpg,A_F_11.jpg,C_M_03.jpg,left,753.4499999892432,true,low,NA,NA,NA,NA,NA,NA,NA,false
FkLwAkkf,3atyli1pswfm29bow6spg463876ojo,3x08e93bhzvmcso73th8fkbze2166q,FkLwAkkf,2020-0188,2020-11-17,15:01:05,15:25:33,NA,incomplete,195,race,3,0,right,C_M_04.jpg,A_M_02.jpg,C_F_03.jpg,right,833.4150000009686,true,low,NA,NA,NA,NA,NA,NA,NA,false
FkLwAkkf,3atyli1pswfm29bow6spg463876ojo,3x08e93bhzvmcso73th8fkbze2166q,FkLwAkkf,2020-0188,2020-11-17,15:01:05,15:25:33,NA,incomplete,196,race,3,1,right,C_F_04.jpg,A_F_02.jpg,C_M_13.jpg,right,842.1249999955762,true,low,NA,NA,NA,NA,NA,NA,NA,false
FkLwAkkf,3atyli1pswfm29bow6spg463876ojo,3x08e93bhzvmcso73th8fkbze2166q,FkLwAkkf,2020-0188,2020-11-17,15:01:05,15:25:33,NA,incomplete,197,race,3,0,right,C_F_16.jpg,A_F_05.jpg,C_M_13.jpg,right,647.5599999830592,true,low,NA,NA,NA,NA,NA,NA,NA,false
FkLwAkkf,3atyli1pswfm29bow6spg463876ojo,3x08e93bhzvmcso73th8fkbze2166q,FkLwAkkf,2020-0188,2020-11-17,15:01:05,15:25:33,NA,incomplete,198,race,3,1,right,C_F_08.jpg,A_F_04.jpg,C_M_02.jpg,left,839.6899999934249,false,low,NA,NA,NA,NA,NA,NA,NA,false
FkLwAkkf,3atyli1pswfm29bow6spg463876ojo,3x08e93bhzvmcso73th8fkbze2166q,FkLwAkkf,2020-0188,2020-11-17,15:01:05,15:25:33,NA,incomplete,199,race,3,1,left,C_M_05.jpg,C_F_13.jpg,A_M_15.jpg,right,647.9300000064541,false,low,NA,NA,NA,NA,NA,NA,NA,false
FkLwAkkf,3atyli1pswfm29bow6spg463876ojo,3x08e93bhzvmcso73th8fkbze2166q,FkLwAkkf,2020-0188,2020-11-17,15:01:05,15:25:33,NA,incomplete,200,gender,2,1,left,C_F_09.jpg,A_F_02.jpg,C_M_10.jpg,right,1201.7550000164192,false,low,NA,NA,NA,NA,NA,NA,NA,false
FkLwAkkf,3atyli1pswfm29bow6spg463876ojo,3x08e93bhzvmcso73th8fkbze2166q,FkLwAkkf,2020-0188,2020-11-17,15:01:05,15:25:33,NA,incomplete,201,gender,2,0,left,C_F_10.jpg,A_F_15.jpg,C_M_01.jpg,right,911.7700000060722,false,low,NA,NA,NA,NA,NA,NA,NA,false
FkLwAkkf,3atyli1pswfm29bow6spg463876ojo,3x08e93bhzvmcso73th8fkbze2166q,FkLwAkkf,2020-0188,2020-11-17,15:01:05,15:25:33,NA,incomplete,202,gender,2,1,right,A_M_12.jpg,A_F_10.jpg,C_M_03.jpg,left,1237.154999980703,false,low,NA,NA,NA,NA,NA,NA,NA,false
FkLwAkkf,3atyli1pswfm29bow6spg463876ojo,3x08e93bhzvmcso73th8fkbze2166q,FkLwAkkf,2020-0188,2020-11-17,15:01:05,15:25:33,NA,incomplete,203,gender,2,1,right,A_M_09.jpg,A_F_02.jpg,C_M_03.jpg,right,1085.6799999892246,true,low,NA,NA,NA,NA,NA,NA,NA,false
FkLwAkkf,3atyli1pswfm29bow6spg463876ojo,3x08e93bhzvmcso73th8fkbze2166q,FkLwAkkf,2020-0188,2020-11-17,15:01:05,15:25:33,NA,incomplete,204,gender,2,1,right,C_F_06.jpg,C_M_01.jpg,A_F_05.jpg,right,678.0549999966752,true,low,NA,NA,NA,NA,NA,NA,NA,false
FkLwAkkf,3atyli1pswfm29bow6spg463876ojo,3x08e93bhzvmcso73th8fkbze2166q,FkLwAkkf,2020-0188,2020-11-17,15:01:05,15:25:33,NA,incomplete,205,gender,2,1,right,A_M_15.jpg,A_F_12.jpg,C_M_04.jpg,right,1063.800000003539,true,low,NA,NA,NA,NA,NA,NA,NA,false
FkLwAkkf,3atyli1pswfm29bow6spg463876ojo,3x08e93bhzvmcso73th8fkbze2166q,FkLwAkkf,2020-0188,2020-11-17,15:01:05,15:25:33,NA,incomplete,206,gender,2,0,left,A_M_13.jpg,C_M_11.jpg,A_F_15.jpg,left,658.0100000137463,true,low,NA,NA,NA,NA,NA,NA,NA,false
FkLwAkkf,3atyli1pswfm29bow6spg463876ojo,3x08e93bhzvmcso73th8fkbze2166q,FkLwAkkf,2020-0188,2020-11-17,15:01:05,15:25:33,NA,incomplete,207,gender,2,1,left,C_F_12.jpg,A_F_01.jpg,C_M_02.jpg,left,901.6349999874365,true,low,NA,NA,NA,NA,NA,NA,NA,false
FkLwAkkf,3atyli1pswfm29bow6spg463876ojo,3x08e93bhzvmcso73th8fkbze2166q,FkLwAkkf,2020-0188,2020-11-17,15:01:05,15:25:33,NA,incomplete,208,gender,2,1,left,A_F_02.jpg,C_F_06.jpg,A_M_01.jpg,left,748.2000000018161,true,low,NA,NA,NA,NA,NA,NA,NA,false
FkLwAkkf,3atyli1pswfm29bow6spg463876ojo,3x08e93bhzvmcso73th8fkbze2166q,FkLwAkkf,2020-0188,2020-11-17,15:01:05,15:25:33,NA,incomplete,209,gender,2,1,right,A_M_12.jpg,A_F_05.jpg,C_M_11.jpg,right,698.9399999729358,true,low,NA,NA,NA,NA,NA,NA,NA,false
FkLwAkkf,3atyli1pswfm29bow6spg463876ojo,3x08e93bhzvmcso73th8fkbze2166q,FkLwAkkf,2020-0188,2020-11-17,15:01:05,15:25:33,NA,incomplete,210,gender,2,1,left,A_F_03.jpg,C_F_16.jpg,A_M_13.jpg,right,1148.879999993369,false,low,NA,NA,NA,NA,NA,NA,NA,false
FkLwAkkf,3atyli1pswfm29bow6spg463876ojo,3x08e93bhzvmcso73th8fkbze2166q,FkLwAkkf,2020-0188,2020-11-17,15:01:05,15:25:33,NA,incomplete,211,gender,2,1,left,C_M_12.jpg,A_M_13.jpg,C_F_01.jpg,left,804.2549999954645,true,low,NA,NA,NA,NA,NA,NA,NA,false
FkLwAkkf,3atyli1pswfm29bow6spg463876ojo,3x08e93bhzvmcso73th8fkbze2166q,FkLwAkkf,2020-0188,2020-11-17,15:01:05,15:25:33,NA,incomplete,212,gender,2,1,right,C_F_13.jpg,C_M_08.jpg,A_F_11.jpg,right,702.1449999883771,true,low,NA,NA,NA,NA,NA,NA,NA,false
FkLwAkkf,3atyli1pswfm29bow6spg463876ojo,3x08e93bhzvmcso73th8fkbze2166q,FkLwAkkf,2020-0188,2020-11-17,15:01:05,15:25:33,NA,incomplete,213,gender,2,1,right,A_F_04.jpg,A_M_01.jpg,C_F_02.jpg,right,859.4049999956042,true,low,NA,NA,NA,NA,NA,NA,NA,false
FkLwAkkf,3atyli1pswfm29bow6spg463876ojo,3x08e93bhzvmcso73th8fkbze2166q,FkLwAkkf,2020-0188,2020-11-17,15:01:05,15:25:33,NA,incomplete,214,gender,2,1,left,C_F_14.jpg,A_F_02.jpg,C_M_13.jpg,left,672.420000017155,true,low,NA,NA,NA,NA,NA,NA,NA,false
FkLwAkkf,3atyli1pswfm29bow6spg463876ojo,3x08e93bhzvmcso73th8fkbze2166q,FkLwAkkf,2020-0188,2020-11-17,15:01:05,15:25:33,NA,incomplete,215,gender,2,0,left,C_M_07.jpg,A_M_16.jpg,C_F_11.jpg,left,841.7999999946915,true,low,NA,NA,NA,NA,NA,NA,NA,false
FkLwAkkf,3atyli1pswfm29bow6spg463876ojo,3x08e93bhzvmcso73th8fkbze2166q,FkLwAkkf,2020-0188,2020-11-17,15:01:05,15:25:33,NA,incomplete,216,gender,2,1,left,C_F_10.jpg,A_F_08.jpg,C_M_02.jpg,left,843.5549999994691,true,low,NA,NA,NA,NA,NA,NA,NA,false
FkLwAkkf,3atyli1pswfm29bow6spg463876ojo,3x08e93bhzvmcso73th8fkbze2166q,FkLwAkkf,2020-0188,2020-11-17,15:01:05,15:25:33,NA,incomplete,217,gender,2,1,left,A_F_02.jpg,C_F_08.jpg,A_M_07.jpg,left,672.4599999724887,true,low,NA,NA,NA,NA,NA,NA,NA,false
FkLwAkkf,3atyli1pswfm29bow6spg463876ojo,3x08e93bhzvmcso73th8fkbze2166q,FkLwAkkf,2020-0188,2020-11-17,15:01:05,15:25:33,NA,incomplete,218,gender,2,1,left,A_M_08.jpg,C_M_10.jpg,A_F_03.jpg,left,839.5750000199769,true,low,NA,NA,NA,NA,NA,NA,NA,false
FkLwAkkf,3atyli1pswfm29bow6spg463876ojo,3x08e93bhzvmcso73th8fkbze2166q,FkLwAkkf,2020-0188,2020-11-17,15:01:05,15:25:33,NA,incomplete,219,gender,2,1,right,C_F_09.jpg,C_M_01.jpg,A_F_08.jpg,right,718.1350000028033,true,low,NA,NA,NA,NA,NA,NA,NA,false
FkLwAkkf,3atyli1pswfm29bow6spg463876ojo,3x08e93bhzvmcso73th8fkbze2166q,FkLwAkkf,2020-0188,2020-11-17,15:01:05,15:25:33,NA,incomplete,220,race,3,1,left,A_F_08.jpg,A_M_15.jpg,C_F_04.jpg,right,875.6550000107381,false,low,NA,NA,NA,NA,NA,NA,NA,false
FkLwAkkf,3atyli1pswfm29bow6spg463876ojo,3x08e93bhzvmcso73th8fkbze2166q,FkLwAkkf,2020-0188,2020-11-17,15:01:05,15:25:33,NA,incomplete,221,race,3,0,left,C_M_02.jpg,C_F_06.jpg,A_M_15.jpg,right,692.3149999929592,false,low,NA,NA,NA,NA,NA,NA,NA,false
FkLwAkkf,3atyli1pswfm29bow6spg463876ojo,3x08e93bhzvmcso73th8fkbze2166q,FkLwAkkf,2020-0188,2020-11-17,15:01:05,15:25:33,NA,incomplete,222,race,3,1,left,C_F_14.jpg,C_M_12.jpg,A_F_15.jpg,right,832.7850000059698,false,low,NA,NA,NA,NA,NA,NA,NA,false
FkLwAkkf,3atyli1pswfm29bow6spg463876ojo,3x08e93bhzvmcso73th8fkbze2166q,FkLwAkkf,2020-0188,2020-11-17,15:01:05,15:25:33,NA,incomplete,223,race,3,1,left,C_F_11.jpg,C_M_05.jpg,A_F_15.jpg,right,656.9350000063423,false,low,NA,NA,NA,NA,NA,NA,NA,false
FkLwAkkf,3atyli1pswfm29bow6spg463876ojo,3x08e93bhzvmcso73th8fkbze2166q,FkLwAkkf,2020-0188,2020-11-17,15:01:05,15:25:33,NA,incomplete,224,race,3,1,right,A_M_13.jpg,C_M_10.jpg,A_F_14.jpg,right,917.5950000062585,true,low,NA,NA,NA,NA,NA,NA,NA,false
FkLwAkkf,3atyli1pswfm29bow6spg463876ojo,3x08e93bhzvmcso73th8fkbze2166q,FkLwAkkf,2020-0188,2020-11-17,15:01:05,15:25:33,NA,incomplete,225,race,3,1,left,A_F_04.jpg,A_M_09.jpg,C_F_06.jpg,left,991.9350000272971,true,low,NA,NA,NA,NA,NA,NA,NA,false
FkLwAkkf,3atyli1pswfm29bow6spg463876ojo,3x08e93bhzvmcso73th8fkbze2166q,FkLwAkkf,2020-0188,2020-11-17,15:01:05,15:25:33,NA,incomplete,226,race,3,1,right,A_F_16.jpg,C_F_15.jpg,A_M_12.jpg,right,1017.8200000082143,true,low,NA,NA,NA,NA,NA,NA,NA,false
FkLwAkkf,3atyli1pswfm29bow6spg463876ojo,3x08e93bhzvmcso73th8fkbze2166q,FkLwAkkf,2020-0188,2020-11-17,15:01:05,15:25:33,NA,incomplete,227,race,3,0,right,A_F_11.jpg,C_F_16.jpg,A_M_08.jpg,right,854.8099999898113,true,low,NA,NA,NA,NA,NA,NA,NA,false
FkLwAkkf,3atyli1pswfm29bow6spg463876ojo,3x08e93bhzvmcso73th8fkbze2166q,FkLwAkkf,2020-0188,2020-11-17,15:01:05,15:25:33,NA,incomplete,228,race,3,1,left,A_M_10.jpg,A_F_07.jpg,C_M_02.jpg,left,758.1599999975879,true,low,NA,NA,NA,NA,NA,NA,NA,false
FkLwAkkf,3atyli1pswfm29bow6spg463876ojo,3x08e93bhzvmcso73th8fkbze2166q,FkLwAkkf,2020-0188,2020-11-17,15:01:05,15:25:33,NA,incomplete,229,race,3,1,right,C_F_16.jpg,A_F_10.jpg,C_M_01.jpg,right,881.4949999796227,true,low,NA,NA,NA,NA,NA,NA,NA,false
FkLwAkkf,3atyli1pswfm29bow6spg463876ojo,3x08e93bhzvmcso73th8fkbze2166q,FkLwAkkf,2020-0188,2020-11-17,15:01:05,15:25:33,NA,incomplete,230,race,3,1,right,A_F_16.jpg,C_F_04.jpg,A_M_15.jpg,right,867.3750000016298,true,low,NA,NA,NA,NA,NA,NA,NA,false
FkLwAkkf,3atyli1pswfm29bow6spg463876ojo,3x08e93bhzvmcso73th8fkbze2166q,FkLwAkkf,2020-0188,2020-11-17,15:01:05,15:25:33,NA,incomplete,231,race,3,1,right,C_F_14.jpg,A_F_13.jpg,C_M_08.jpg,left,1181.8199999979697,false,low,NA,NA,NA,NA,NA,NA,NA,false
FkLwAkkf,3atyli1pswfm29bow6spg463876ojo,3x08e93bhzvmcso73th8fkbze2166q,FkLwAkkf,2020-0188,2020-11-17,15:01:05,15:25:33,NA,incomplete,232,race,3,1,right,C_F_01.jpg,A_F_05.jpg,C_M_13.jpg,right,1042.3899999877904,true,low,NA,NA,NA,NA,NA,NA,NA,false
FkLwAkkf,3atyli1pswfm29bow6spg463876ojo,3x08e93bhzvmcso73th8fkbze2166q,FkLwAkkf,2020-0188,2020-11-17,15:01:05,15:25:33,NA,incomplete,233,race,3,1,right,C_M_06.jpg,A_M_13.jpg,C_F_08.jpg,right,1087.4599999806378,true,low,NA,NA,NA,NA,NA,NA,NA,false
FkLwAkkf,3atyli1pswfm29bow6spg463876ojo,3x08e93bhzvmcso73th8fkbze2166q,FkLwAkkf,2020-0188,2020-11-17,15:01:05,15:25:33,NA,incomplete,234,race,3,1,left,C_F_11.jpg,C_M_06.jpg,A_F_07.jpg,left,1125.6850000063423,true,low,NA,NA,NA,NA,NA,NA,NA,false
FkLwAkkf,3atyli1pswfm29bow6spg463876ojo,3x08e93bhzvmcso73th8fkbze2166q,FkLwAkkf,2020-0188,2020-11-17,15:01:05,15:25:33,NA,incomplete,235,race,3,1,right,A_M_10.jpg,C_M_14.jpg,A_F_08.jpg,right,818.7999999790918,true,low,NA,NA,NA,NA,NA,NA,NA,false
FkLwAkkf,3atyli1pswfm29bow6spg463876ojo,3x08e93bhzvmcso73th8fkbze2166q,FkLwAkkf,2020-0188,2020-11-17,15:01:05,15:25:33,NA,incomplete,236,race,3,0,right,C_F_15.jpg,A_F_10.jpg,C_M_03.jpg,right,1169.9450000014622,true,low,NA,NA,NA,NA,NA,NA,NA,false
FkLwAkkf,3atyli1pswfm29bow6spg463876ojo,3x08e93bhzvmcso73th8fkbze2166q,FkLwAkkf,2020-0188,2020-11-17,15:01:05,15:25:33,NA,incomplete,237,race,3,1,left,A_F_09.jpg,A_M_14.jpg,C_F_02.jpg,left,982.6649999886286,true,low,NA,NA,NA,NA,NA,NA,NA,false
FkLwAkkf,3atyli1pswfm29bow6spg463876ojo,3x08e93bhzvmcso73th8fkbze2166q,FkLwAkkf,2020-0188,2020-11-17,15:01:05,15:25:33,NA,incomplete,238,race,3,0,right,A_M_02.jpg,C_M_16.jpg,A_F_12.jpg,right,801.0399999911897,true,low,NA,NA,NA,NA,NA,NA,NA,false
FkLwAkkf,3atyli1pswfm29bow6spg463876ojo,3x08e93bhzvmcso73th8fkbze2166q,FkLwAkkf,2020-0188,2020-11-17,15:01:05,15:25:33,NA,incomplete,239,race,3,1,right,A_M_09.jpg,C_M_08.jpg,A_F_05.jpg,right,740.3099999937695,true,low,NA,NA,NA,NA,NA,NA,NA,false
FkLwAkkf,3atyli1pswfm29bow6spg463876ojo,3x08e93bhzvmcso73th8fkbze2166q,FkLwAkkf,2020-0188,2020-11-17,15:01:05,15:25:33,NA,NA,instruction example,shape,NA,NA,NA,Blue_Plus_Dots_1.jpg,Green_Plus_Grid_4.jpg,Blue_Circle_Chess_3.jpg,NA,NA,NA,NA,NA,NA,NA,NA,NA,NA,NA,undefined
FkLwAkkf,3atyli1pswfm29bow6spg463876ojo,3x08e93bhzvmcso73th8fkbze2166q,FkLwAkkf,2020-0188,2020-11-17,15:01:05,15:25:33,NA,NA,instruction example,shape,NA,NA,NA,Red_Plus_Stripes_3.jpg,Red_Star_Dots_4.jpg,Blue_Plus_Chess_2.jpg,NA,NA,NA,NA,NA,NA,NA,NA,NA,NA,NA,undefined
FkLwAkkf,3atyli1pswfm29bow6spg463876ojo,3x08e93bhzvmcso73th8fkbze2166q,FkLwAkkf,2020-0188,2020-11-17,15:01:05,15:25:33,NA,NA,instruction example,shape,NA,NA,NA,C_M_16.jpg,A_M_05.jpg,C_F_14.jpg,NA,NA,NA,NA,NA,NA,NA,NA,NA,NA,NA,undefined
FkLwAkkf,3atyli1pswfm29bow6spg463876ojo,3x08e93bhzvmcso73th8fkbze2166q,FkLwAkkf,2020-0188,2020-11-17,15:01:05,15:25:33,NA,NA,instruction example,shape,NA,NA,NA,C_M_05.jpg,C_F_08.jpg,A_M_09.jpg,NA,NA,NA,NA,NA,NA,NA,NA,NA,NA,NA,undefined
FkLwAkkf,3atyli1pswfm29bow6spg463876ojo,3x08e93bhzvmcso73th8fkbze2166q,FkLwAkkf,2020-0188,2020-11-17,15:01:05,15:25:33,1426613.859999983,1469368.044999981,NA,NA,NA,NA,NA,NA,NA,NA,NA,NA,NA,NA,66,White/Caucasian,Male,usa,no,yes,no,undefined
