workerId,hitId,assignmentId,subject,studyid,exp_date,exp_start,exp_end,time_start,time_end,trial,type,sequence,reward_validity,answer,image_top,image_left,image_right,response,response_time,response_acc,volatility,age,race,gender,ethnicity,color,vision,neuro,practice
2qeIDQQR,3ni0wfppjctpbx4ya2wphz5gism608,3x0h8uuit51pt51a1oxfej63og6swq,2qeIDQQR,2020-0188,2020-06-04,14:53:25,15:09:45,NA,incomplete,0,number,0,0,right,Red_Star_Dots_3.jpg,Red_Plus_Stripes_1.jpg,Purple_Circle_Grid_3.jpg,right,1337.149999999383,true,NA,NA,NA,NA,NA,NA,NA,NA,true
2qeIDQQR,3ni0wfppjctpbx4ya2wphz5gism608,3x0h8uuit51pt51a1oxfej63og6swq,2qeIDQQR,2020-0188,2020-06-04,14:53:25,15:09:45,NA,incomplete,1,number,0,0,left,Purple_Plus_Dots_4.jpg,Green_Star_Stripes_4.jpg,Purple_Circle_Chess_1.jpg,left,847.9700000007288,true,NA,NA,NA,NA,NA,NA,NA,NA,true
2qeIDQQR,3ni0wfppjctpbx4ya2wphz5gism608,3x0h8uuit51pt51a1oxfej63og6swq,2qeIDQQR,2020-0188,2020-06-04,14:53:25,15:09:45,NA,incomplete,2,number,0,0,right,Purple_Triangle_Dots_2.jpg,Purple_Star_Chess_1.jpg,Blue_Plus_Grid_2.jpg,right,794.79499999978,true,NA,NA,NA,NA,NA,NA,NA,NA,true
2qeIDQQR,3ni0wfppjctpbx4ya2wphz5gism608,3x0h8uuit51pt51a1oxfej63og6swq,2qeIDQQR,2020-0188,2020-06-04,14:53:25,15:09:45,NA,incomplete,3,number,0,1,right,Purple_Triangle_Dots_1.jpg,Purple_Circle_Chess_3.jpg,Green_Star_Stripes_1.jpg,right,1343.695000001404,true,NA,NA,NA,NA,NA,NA,NA,NA,true
2qeIDQQR,3ni0wfppjctpbx4ya2wphz5gism608,3x0h8uuit51pt51a1oxfej63og6swq,2qeIDQQR,2020-0188,2020-06-04,14:53:25,15:09:45,NA,incomplete,4,number,0,1,left,Purple_Triangle_Dots_1.jpg,Green_Star_Stripes_1.jpg,Purple_Circle_Grid_2.jpg,left,774.3599999994622,true,NA,NA,NA,NA,NA,NA,NA,NA,true
2qeIDQQR,3ni0wfppjctpbx4ya2wphz5gism608,3x0h8uuit51pt51a1oxfej63og6swq,2qeIDQQR,2020-0188,2020-06-04,14:53:25,15:09:45,NA,incomplete,5,number,0,1,left,Purple_Triangle_Dots_4.jpg,Red_Star_Chess_4.jpg,Purple_Plus_Stripes_1.jpg,left,787.5300000014249,true,NA,NA,NA,NA,NA,NA,NA,NA,true
2qeIDQQR,3ni0wfppjctpbx4ya2wphz5gism608,3x0h8uuit51pt51a1oxfej63og6swq,2qeIDQQR,2020-0188,2020-06-04,14:53:25,15:09:45,NA,incomplete,6,number,0,1,left,Green_Star_Dots_1.jpg,Blue_Circle_Chess_1.jpg,Green_Triangle_Stripes_4.jpg,left,728.3200000001525,true,NA,NA,NA,NA,NA,NA,NA,NA,true
2qeIDQQR,3ni0wfppjctpbx4ya2wphz5gism608,3x0h8uuit51pt51a1oxfej63og6swq,2qeIDQQR,2020-0188,2020-06-04,14:53:25,15:09:45,NA,incomplete,7,number,0,1,right,Red_Star_Chess_2.jpg,Red_Triangle_Dots_3.jpg,Purple_Circle_Grid_2.jpg,right,808.179999999993,true,NA,NA,NA,NA,NA,NA,NA,NA,true
2qeIDQQR,3ni0wfppjctpbx4ya2wphz5gism608,3x0h8uuit51pt51a1oxfej63og6swq,2qeIDQQR,2020-0188,2020-06-04,14:53:25,15:09:45,NA,incomplete,8,number,0,1,right,Purple_Circle_Dots_4.jpg,Purple_Star_Grid_1.jpg,Green_Plus_Stripes_4.jpg,right,733.0550000006333,true,NA,NA,NA,NA,NA,NA,NA,NA,true
2qeIDQQR,3ni0wfppjctpbx4ya2wphz5gism608,3x0h8uuit51pt51a1oxfej63og6swq,2qeIDQQR,2020-0188,2020-06-04,14:53:25,15:09:45,NA,incomplete,9,number,0,1,left,Red_Plus_Chess_3.jpg,Blue_Star_Grid_3.jpg,Red_Triangle_Stripes_4.jpg,left,765.5649999997113,true,NA,NA,NA,NA,NA,NA,NA,NA,true
2qeIDQQR,3ni0wfppjctpbx4ya2wphz5gism608,3x0h8uuit51pt51a1oxfej63og6swq,2qeIDQQR,2020-0188,2020-06-04,14:53:25,15:09:45,NA,incomplete,10,number,0,1,left,Blue_Plus_Dots_2.jpg,Red_Star_Chess_2.jpg,Blue_Circle_Grid_4.jpg,left,667.8150000007008,true,NA,NA,NA,NA,NA,NA,NA,NA,true
2qeIDQQR,3ni0wfppjctpbx4ya2wphz5gism608,3x0h8uuit51pt51a1oxfej63og6swq,2qeIDQQR,2020-0188,2020-06-04,14:53:25,15:09:45,NA,incomplete,11,number,0,1,left,Red_Triangle_Stripes_3.jpg,Green_Star_Chess_3.jpg,Red_Plus_Grid_1.jpg,left,766.6699999990815,true,NA,NA,NA,NA,NA,NA,NA,NA,true
2qeIDQQR,3ni0wfppjctpbx4ya2wphz5gism608,3x0h8uuit51pt51a1oxfej63og6swq,2qeIDQQR,2020-0188,2020-06-04,14:53:25,15:09:45,NA,incomplete,12,number,0,1,left,Red_Triangle_Stripes_4.jpg,Blue_Circle_Dots_4.jpg,Red_Plus_Chess_2.jpg,left,621.6050000002433,true,NA,NA,NA,NA,NA,NA,NA,NA,true
2qeIDQQR,3ni0wfppjctpbx4ya2wphz5gism608,3x0h8uuit51pt51a1oxfej63og6swq,2qeIDQQR,2020-0188,2020-06-04,14:53:25,15:09:45,NA,incomplete,13,number,0,1,right,Purple_Triangle_Grid_4.jpg,Purple_Circle_Stripes_3.jpg,Red_Star_Dots_4.jpg,right,633.4200000001001,true,NA,NA,NA,NA,NA,NA,NA,NA,true
2qeIDQQR,3ni0wfppjctpbx4ya2wphz5gism608,3x0h8uuit51pt51a1oxfej63og6swq,2qeIDQQR,2020-0188,2020-06-04,14:53:25,15:09:45,NA,incomplete,14,number,0,0,right,Blue_Triangle_Chess_3.jpg,Blue_Circle_Stripes_1.jpg,Red_Plus_Grid_3.jpg,right,767.0999999991036,true,NA,NA,NA,NA,NA,NA,NA,NA,true
2qeIDQQR,3ni0wfppjctpbx4ya2wphz5gism608,3x0h8uuit51pt51a1oxfej63og6swq,2qeIDQQR,2020-0188,2020-06-04,14:53:25,15:09:45,NA,incomplete,15,number,0,1,right,Purple_Star_Chess_4.jpg,Purple_Plus_Dots_3.jpg,Blue_Circle_Grid_4.jpg,right,621.1449999991455,true,NA,NA,NA,NA,NA,NA,NA,NA,true
2qeIDQQR,3ni0wfppjctpbx4ya2wphz5gism608,3x0h8uuit51pt51a1oxfej63og6swq,2qeIDQQR,2020-0188,2020-06-04,14:53:25,15:09:45,NA,incomplete,16,number,0,1,right,Green_Triangle_Grid_4.jpg,Green_Plus_Dots_1.jpg,Blue_Circle_Stripes_4.jpg,right,585.1350000011735,true,NA,NA,NA,NA,NA,NA,NA,NA,true
2qeIDQQR,3ni0wfppjctpbx4ya2wphz5gism608,3x0h8uuit51pt51a1oxfej63og6swq,2qeIDQQR,2020-0188,2020-06-04,14:53:25,15:09:45,NA,incomplete,17,number,0,1,left,Blue_Star_Grid_4.jpg,Green_Circle_Chess_4.jpg,Blue_Triangle_Stripes_2.jpg,left,919.9800000005635,true,NA,NA,NA,NA,NA,NA,NA,NA,true
2qeIDQQR,3ni0wfppjctpbx4ya2wphz5gism608,3x0h8uuit51pt51a1oxfej63og6swq,2qeIDQQR,2020-0188,2020-06-04,14:53:25,15:09:45,NA,incomplete,18,number,0,1,left,Blue_Circle_Dots_1.jpg,Red_Star_Grid_1.jpg,Blue_Triangle_Stripes_3.jpg,right,768.0599999984843,false,NA,NA,NA,NA,NA,NA,NA,NA,true
2qeIDQQR,3ni0wfppjctpbx4ya2wphz5gism608,3x0h8uuit51pt51a1oxfej63og6swq,2qeIDQQR,2020-0188,2020-06-04,14:53:25,15:09:45,NA,incomplete,19,number,0,0,right,Blue_Circle_Grid_3.jpg,Blue_Triangle_Dots_2.jpg,Green_Plus_Stripes_3.jpg,right,844.9599999985658,true,NA,NA,NA,NA,NA,NA,NA,NA,true
2qeIDQQR,3ni0wfppjctpbx4ya2wphz5gism608,3x0h8uuit51pt51a1oxfej63og6swq,2qeIDQQR,2020-0188,2020-06-04,14:53:25,15:09:45,NA,incomplete,20,color,1,0,right,Green_Star_Grid_2.jpg,Red_Circle_Chess_2.jpg,Green_Triangle_Dots_4.jpg,right,1065.5349999997416,true,NA,NA,NA,NA,NA,NA,NA,NA,true
2qeIDQQR,3ni0wfppjctpbx4ya2wphz5gism608,3x0h8uuit51pt51a1oxfej63og6swq,2qeIDQQR,2020-0188,2020-06-04,14:53:25,15:09:45,NA,incomplete,21,color,1,1,right,Green_Triangle_Grid_1.jpg,Red_Star_Chess_1.jpg,Green_Circle_Dots_3.jpg,right,971.5400000004447,true,NA,NA,NA,NA,NA,NA,NA,NA,true
2qeIDQQR,3ni0wfppjctpbx4ya2wphz5gism608,3x0h8uuit51pt51a1oxfej63og6swq,2qeIDQQR,2020-0188,2020-06-04,14:53:25,15:09:45,NA,incomplete,22,color,1,1,left,Red_Star_Grid_3.jpg,Red_Plus_Stripes_1.jpg,Purple_Circle_Dots_3.jpg,left,905.1950000011711,true,NA,NA,NA,NA,NA,NA,NA,NA,true
2qeIDQQR,3ni0wfppjctpbx4ya2wphz5gism608,3x0h8uuit51pt51a1oxfej63og6swq,2qeIDQQR,2020-0188,2020-06-04,14:53:25,15:09:45,NA,incomplete,23,color,1,1,left,Purple_Star_Dots_2.jpg,Purple_Plus_Stripes_4.jpg,Green_Circle_Chess_2.jpg,left,833.0100000003004,true,NA,NA,NA,NA,NA,NA,NA,NA,true
2qeIDQQR,3ni0wfppjctpbx4ya2wphz5gism608,3x0h8uuit51pt51a1oxfej63og6swq,2qeIDQQR,2020-0188,2020-06-04,14:53:25,15:09:45,NA,incomplete,24,color,1,1,right,Purple_Plus_Grid_2.jpg,Green_Triangle_Stripes_2.jpg,Purple_Circle_Chess_4.jpg,right,853.6700000003912,true,NA,NA,NA,NA,NA,NA,NA,NA,true
2qeIDQQR,3ni0wfppjctpbx4ya2wphz5gism608,3x0h8uuit51pt51a1oxfej63og6swq,2qeIDQQR,2020-0188,2020-06-04,14:53:25,15:09:45,NA,incomplete,25,color,1,1,left,Blue_Triangle_Stripes_1.jpg,Blue_Circle_Grid_3.jpg,Purple_Star_Chess_1.jpg,left,983.0300000012503,true,NA,NA,NA,NA,NA,NA,NA,NA,true
2qeIDQQR,3ni0wfppjctpbx4ya2wphz5gism608,3x0h8uuit51pt51a1oxfej63og6swq,2qeIDQQR,2020-0188,2020-06-04,14:53:25,15:09:45,NA,incomplete,26,color,1,1,right,Purple_Circle_Grid_1.jpg,Green_Plus_Stripes_1.jpg,Purple_Star_Dots_2.jpg,right,964.8099999994738,true,NA,NA,NA,NA,NA,NA,NA,NA,true
2qeIDQQR,3ni0wfppjctpbx4ya2wphz5gism608,3x0h8uuit51pt51a1oxfej63og6swq,2qeIDQQR,2020-0188,2020-06-04,14:53:25,15:09:45,NA,incomplete,27,color,1,1,left,Green_Star_Stripes_1.jpg,Green_Triangle_Chess_2.jpg,Purple_Circle_Dots_1.jpg,left,946.5749999999534,true,NA,NA,NA,NA,NA,NA,NA,NA,true
2qeIDQQR,3ni0wfppjctpbx4ya2wphz5gism608,3x0h8uuit51pt51a1oxfej63og6swq,2qeIDQQR,2020-0188,2020-06-04,14:53:25,15:09:45,NA,incomplete,28,color,1,1,right,Purple_Star_Dots_4.jpg,Green_Circle_Stripes_4.jpg,Purple_Triangle_Chess_1.jpg,right,921.4050000009593,true,NA,NA,NA,NA,NA,NA,NA,NA,true
2qeIDQQR,3ni0wfppjctpbx4ya2wphz5gism608,3x0h8uuit51pt51a1oxfej63og6swq,2qeIDQQR,2020-0188,2020-06-04,14:53:25,15:09:45,NA,incomplete,29,color,1,1,left,Blue_Triangle_Chess_3.jpg,Blue_Star_Dots_4.jpg,Red_Circle_Grid_3.jpg,left,1048.8700000005192,true,NA,NA,NA,NA,NA,NA,NA,NA,true
2qeIDQQR,3ni0wfppjctpbx4ya2wphz5gism608,3x0h8uuit51pt51a1oxfej63og6swq,2qeIDQQR,2020-0188,2020-06-04,14:53:25,15:09:45,NA,incomplete,30,color,1,0,right,Blue_Star_Grid_1.jpg,Purple_Triangle_Stripes_1.jpg,Blue_Plus_Chess_3.jpg,right,819.3399999999674,true,NA,NA,NA,NA,NA,NA,NA,NA,true
2qeIDQQR,3ni0wfppjctpbx4ya2wphz5gism608,3x0h8uuit51pt51a1oxfej63og6swq,2qeIDQQR,2020-0188,2020-06-04,14:53:25,15:09:45,NA,incomplete,31,color,1,0,left,Red_Plus_Chess_1.jpg,Red_Star_Grid_3.jpg,Green_Triangle_Dots_1.jpg,left,703.9300000015064,true,NA,NA,NA,NA,NA,NA,NA,NA,true
2qeIDQQR,3ni0wfppjctpbx4ya2wphz5gism608,3x0h8uuit51pt51a1oxfej63og6swq,2qeIDQQR,2020-0188,2020-06-04,14:53:25,15:09:45,NA,incomplete,32,color,1,1,right,Blue_Triangle_Grid_3.jpg,Red_Star_Stripes_3.jpg,Blue_Circle_Chess_2.jpg,right,783.9100000000908,true,NA,NA,NA,NA,NA,NA,NA,NA,true
2qeIDQQR,3ni0wfppjctpbx4ya2wphz5gism608,3x0h8uuit51pt51a1oxfej63og6swq,2qeIDQQR,2020-0188,2020-06-04,14:53:25,15:09:45,NA,incomplete,33,color,1,1,left,Red_Circle_Chess_1.jpg,Red_Star_Dots_4.jpg,Purple_Plus_Grid_1.jpg,left,806.7449999998789,true,NA,NA,NA,NA,NA,NA,NA,NA,true
2qeIDQQR,3ni0wfppjctpbx4ya2wphz5gism608,3x0h8uuit51pt51a1oxfej63og6swq,2qeIDQQR,2020-0188,2020-06-04,14:53:25,15:09:45,NA,incomplete,34,color,1,1,left,Green_Star_Grid_4.jpg,Green_Triangle_Chess_3.jpg,Purple_Plus_Stripes_4.jpg,left,771.5099999986123,true,NA,NA,NA,NA,NA,NA,NA,NA,true
2qeIDQQR,3ni0wfppjctpbx4ya2wphz5gism608,3x0h8uuit51pt51a1oxfej63og6swq,2qeIDQQR,2020-0188,2020-06-04,14:53:25,15:09:45,NA,incomplete,35,color,1,1,right,Green_Plus_Chess_4.jpg,Blue_Circle_Stripes_4.jpg,Green_Star_Dots_2.jpg,right,896.420000000915,true,NA,NA,NA,NA,NA,NA,NA,NA,true
2qeIDQQR,3ni0wfppjctpbx4ya2wphz5gism608,3x0h8uuit51pt51a1oxfej63og6swq,2qeIDQQR,2020-0188,2020-06-04,14:53:25,15:09:45,NA,incomplete,36,color,1,1,left,Red_Circle_Grid_3.jpg,Red_Plus_Dots_4.jpg,Blue_Star_Chess_3.jpg,left,825.4049999995623,true,NA,NA,NA,NA,NA,NA,NA,NA,true
2qeIDQQR,3ni0wfppjctpbx4ya2wphz5gism608,3x0h8uuit51pt51a1oxfej63og6swq,2qeIDQQR,2020-0188,2020-06-04,14:53:25,15:09:45,NA,incomplete,37,color,1,1,right,Blue_Star_Dots_3.jpg,Green_Circle_Chess_3.jpg,Blue_Plus_Stripes_4.jpg,right,701.3600000009756,true,NA,NA,NA,NA,NA,NA,NA,NA,true
2qeIDQQR,3ni0wfppjctpbx4ya2wphz5gism608,3x0h8uuit51pt51a1oxfej63og6swq,2qeIDQQR,2020-0188,2020-06-04,14:53:25,15:09:45,NA,incomplete,38,color,1,1,left,Blue_Triangle_Grid_3.jpg,Blue_Plus_Dots_4.jpg,Green_Circle_Chess_3.jpg,left,743.1800000013318,true,NA,NA,NA,NA,NA,NA,NA,NA,true
2qeIDQQR,3ni0wfppjctpbx4ya2wphz5gism608,3x0h8uuit51pt51a1oxfej63og6swq,2qeIDQQR,2020-0188,2020-06-04,14:53:25,15:09:45,NA,incomplete,39,color,1,1,left,Purple_Star_Chess_4.jpg,Purple_Plus_Stripes_1.jpg,Red_Circle_Grid_4.jpg,left,886.67500000156,true,NA,NA,NA,NA,NA,NA,NA,NA,true
2qeIDQQR,3ni0wfppjctpbx4ya2wphz5gism608,3x0h8uuit51pt51a1oxfej63og6swq,2qeIDQQR,2020-0188,2020-06-04,14:53:25,15:09:45,NA,incomplete,0,number,0,1,left,Blue_Triangle_Grid_2.jpg,Purple_Star_Chess_2.jpg,Blue_Circle_Stripes_1.jpg,right,963.9549999992596,false,low,NA,NA,NA,NA,NA,NA,NA,false
2qeIDQQR,3ni0wfppjctpbx4ya2wphz5gism608,3x0h8uuit51pt51a1oxfej63og6swq,2qeIDQQR,2020-0188,2020-06-04,14:53:25,15:09:45,NA,incomplete,1,number,0,0,right,Purple_Plus_Chess_2.jpg,Purple_Circle_Dots_4.jpg,Red_Star_Grid_2.jpg,right,1016.900000000489,true,low,NA,NA,NA,NA,NA,NA,NA,false
2qeIDQQR,3ni0wfppjctpbx4ya2wphz5gism608,3x0h8uuit51pt51a1oxfej63og6swq,2qeIDQQR,2020-0188,2020-06-04,14:53:25,15:09:45,NA,incomplete,2,number,0,1,right,Blue_Triangle_Grid_1.jpg,Blue_Plus_Dots_3.jpg,Green_Star_Chess_1.jpg,left,909.7499999988358,false,low,NA,NA,NA,NA,NA,NA,NA,false
2qeIDQQR,3ni0wfppjctpbx4ya2wphz5gism608,3x0h8uuit51pt51a1oxfej63og6swq,2qeIDQQR,2020-0188,2020-06-04,14:53:25,15:09:45,NA,incomplete,3,number,0,1,right,Purple_Triangle_Chess_4.jpg,Purple_Plus_Dots_3.jpg,Red_Star_Grid_4.jpg,right,741.6400000001304,true,low,NA,NA,NA,NA,NA,NA,NA,false
2qeIDQQR,3ni0wfppjctpbx4ya2wphz5gism608,3x0h8uuit51pt51a1oxfej63og6swq,2qeIDQQR,2020-0188,2020-06-04,14:53:25,15:09:45,NA,incomplete,4,number,0,1,right,Blue_Triangle_Stripes_1.jpg,Blue_Star_Chess_2.jpg,Purple_Circle_Dots_1.jpg,right,918.6549999995041,true,low,NA,NA,NA,NA,NA,NA,NA,false
2qeIDQQR,3ni0wfppjctpbx4ya2wphz5gism608,3x0h8uuit51pt51a1oxfej63og6swq,2qeIDQQR,2020-0188,2020-06-04,14:53:25,15:09:45,NA,incomplete,5,number,0,1,left,Red_Triangle_Dots_3.jpg,Green_Circle_Grid_3.jpg,Red_Star_Chess_1.jpg,left,757.1999999999534,true,low,NA,NA,NA,NA,NA,NA,NA,false
2qeIDQQR,3ni0wfppjctpbx4ya2wphz5gism608,3x0h8uuit51pt51a1oxfej63og6swq,2qeIDQQR,2020-0188,2020-06-04,14:53:25,15:09:45,NA,incomplete,6,number,0,0,left,Red_Circle_Stripes_4.jpg,Purple_Triangle_Chess_4.jpg,Red_Plus_Grid_3.jpg,left,860.3999999996158,true,low,NA,NA,NA,NA,NA,NA,NA,false
2qeIDQQR,3ni0wfppjctpbx4ya2wphz5gism608,3x0h8uuit51pt51a1oxfej63og6swq,2qeIDQQR,2020-0188,2020-06-04,14:53:25,15:09:45,NA,incomplete,7,number,0,1,left,Red_Triangle_Dots_4.jpg,Green_Circle_Stripes_4.jpg,Red_Plus_Chess_2.jpg,left,646.1449999987963,true,low,NA,NA,NA,NA,NA,NA,NA,false
2qeIDQQR,3ni0wfppjctpbx4ya2wphz5gism608,3x0h8uuit51pt51a1oxfej63og6swq,2qeIDQQR,2020-0188,2020-06-04,14:53:25,15:09:45,NA,incomplete,8,number,0,0,right,Green_Triangle_Dots_2.jpg,Green_Plus_Chess_1.jpg,Red_Star_Grid_2.jpg,right,674.0200000004261,true,low,NA,NA,NA,NA,NA,NA,NA,false
2qeIDQQR,3ni0wfppjctpbx4ya2wphz5gism608,3x0h8uuit51pt51a1oxfej63og6swq,2qeIDQQR,2020-0188,2020-06-04,14:53:25,15:09:45,NA,incomplete,9,number,0,0,right,Red_Circle_Chess_4.jpg,Red_Star_Grid_1.jpg,Purple_Triangle_Stripes_4.jpg,right,637.5950000000885,true,low,NA,NA,NA,NA,NA,NA,NA,false
2qeIDQQR,3ni0wfppjctpbx4ya2wphz5gism608,3x0h8uuit51pt51a1oxfej63og6swq,2qeIDQQR,2020-0188,2020-06-04,14:53:25,15:09:45,NA,incomplete,10,number,0,1,right,Red_Circle_Chess_1.jpg,Red_Star_Stripes_2.jpg,Blue_Triangle_Grid_1.jpg,right,744.7649999994901,true,low,NA,NA,NA,NA,NA,NA,NA,false
2qeIDQQR,3ni0wfppjctpbx4ya2wphz5gism608,3x0h8uuit51pt51a1oxfej63og6swq,2qeIDQQR,2020-0188,2020-06-04,14:53:25,15:09:45,NA,incomplete,11,number,0,1,right,Green_Plus_Stripes_1.jpg,Green_Circle_Dots_2.jpg,Red_Star_Grid_1.jpg,right,703.3750000009895,true,low,NA,NA,NA,NA,NA,NA,NA,false
2qeIDQQR,3ni0wfppjctpbx4ya2wphz5gism608,3x0h8uuit51pt51a1oxfej63og6swq,2qeIDQQR,2020-0188,2020-06-04,14:53:25,15:09:45,NA,incomplete,12,number,0,0,right,Red_Triangle_Dots_1.jpg,Red_Circle_Chess_3.jpg,Purple_Star_Grid_1.jpg,right,744.5500000012689,true,low,NA,NA,NA,NA,NA,NA,NA,false
2qeIDQQR,3ni0wfppjctpbx4ya2wphz5gism608,3x0h8uuit51pt51a1oxfej63og6swq,2qeIDQQR,2020-0188,2020-06-04,14:53:25,15:09:45,NA,incomplete,13,number,0,1,right,Red_Star_Stripes_4.jpg,Red_Circle_Grid_1.jpg,Blue_Plus_Dots_4.jpg,right,623.6349999998929,true,low,NA,NA,NA,NA,NA,NA,NA,false
2qeIDQQR,3ni0wfppjctpbx4ya2wphz5gism608,3x0h8uuit51pt51a1oxfej63og6swq,2qeIDQQR,2020-0188,2020-06-04,14:53:25,15:09:45,NA,incomplete,14,number,0,1,left,Red_Plus_Stripes_4.jpg,Purple_Star_Grid_4.jpg,Red_Circle_Dots_3.jpg,left,621.1800000001094,true,low,NA,NA,NA,NA,NA,NA,NA,false
2qeIDQQR,3ni0wfppjctpbx4ya2wphz5gism608,3x0h8uuit51pt51a1oxfej63og6swq,2qeIDQQR,2020-0188,2020-06-04,14:53:25,15:09:45,NA,incomplete,15,number,0,1,right,Blue_Triangle_Dots_2.jpg,Blue_Circle_Chess_3.jpg,Green_Plus_Grid_2.jpg,right,673.1849999996484,true,low,NA,NA,NA,NA,NA,NA,NA,false
2qeIDQQR,3ni0wfppjctpbx4ya2wphz5gism608,3x0h8uuit51pt51a1oxfej63og6swq,2qeIDQQR,2020-0188,2020-06-04,14:53:25,15:09:45,NA,incomplete,16,number,0,1,right,Red_Star_Stripes_2.jpg,Red_Triangle_Dots_4.jpg,Green_Circle_Grid_2.jpg,right,602.8299999997835,true,low,NA,NA,NA,NA,NA,NA,NA,false
2qeIDQQR,3ni0wfppjctpbx4ya2wphz5gism608,3x0h8uuit51pt51a1oxfej63og6swq,2qeIDQQR,2020-0188,2020-06-04,14:53:25,15:09:45,NA,incomplete,17,number,0,1,right,Blue_Star_Grid_1.jpg,Blue_Triangle_Stripes_3.jpg,Red_Plus_Dots_1.jpg,right,639.8100000005215,true,low,NA,NA,NA,NA,NA,NA,NA,false
2qeIDQQR,3ni0wfppjctpbx4ya2wphz5gism608,3x0h8uuit51pt51a1oxfej63og6swq,2qeIDQQR,2020-0188,2020-06-04,14:53:25,15:09:45,NA,incomplete,18,number,0,0,left,Red_Star_Chess_1.jpg,Purple_Triangle_Stripes_1.jpg,Red_Plus_Grid_3.jpg,left,875.9550000013551,true,low,NA,NA,NA,NA,NA,NA,NA,false
2qeIDQQR,3ni0wfppjctpbx4ya2wphz5gism608,3x0h8uuit51pt51a1oxfej63og6swq,2qeIDQQR,2020-0188,2020-06-04,14:53:25,15:09:45,NA,incomplete,19,number,0,1,left,Purple_Circle_Grid_2.jpg,Red_Plus_Dots_2.jpg,Purple_Triangle_Chess_3.jpg,left,758.4500000011758,true,low,NA,NA,NA,NA,NA,NA,NA,false
2qeIDQQR,3ni0wfppjctpbx4ya2wphz5gism608,3x0h8uuit51pt51a1oxfej63og6swq,2qeIDQQR,2020-0188,2020-06-04,14:53:25,15:09:45,NA,incomplete,20,number,0,1,right,Green_Star_Stripes_1.jpg,Green_Triangle_Dots_2.jpg,Purple_Circle_Grid_1.jpg,right,796.4949999987148,true,low,NA,NA,NA,NA,NA,NA,NA,false
2qeIDQQR,3ni0wfppjctpbx4ya2wphz5gism608,3x0h8uuit51pt51a1oxfej63og6swq,2qeIDQQR,2020-0188,2020-06-04,14:53:25,15:09:45,NA,incomplete,21,number,0,1,left,Purple_Star_Chess_1.jpg,Red_Circle_Dots_1.jpg,Purple_Plus_Stripes_3.jpg,left,713.4800000003306,true,low,NA,NA,NA,NA,NA,NA,NA,false
2qeIDQQR,3ni0wfppjctpbx4ya2wphz5gism608,3x0h8uuit51pt51a1oxfej63og6swq,2qeIDQQR,2020-0188,2020-06-04,14:53:25,15:09:45,NA,incomplete,22,number,0,1,left,Purple_Triangle_Stripes_1.jpg,Blue_Circle_Chess_1.jpg,Purple_Star_Grid_3.jpg,left,754.2050000011222,true,low,NA,NA,NA,NA,NA,NA,NA,false
2qeIDQQR,3ni0wfppjctpbx4ya2wphz5gism608,3x0h8uuit51pt51a1oxfej63og6swq,2qeIDQQR,2020-0188,2020-06-04,14:53:25,15:09:45,NA,incomplete,23,number,0,1,right,Red_Star_Stripes_2.jpg,Red_Triangle_Dots_3.jpg,Blue_Plus_Chess_2.jpg,right,809.1299999995972,true,low,NA,NA,NA,NA,NA,NA,NA,false
2qeIDQQR,3ni0wfppjctpbx4ya2wphz5gism608,3x0h8uuit51pt51a1oxfej63og6swq,2qeIDQQR,2020-0188,2020-06-04,14:53:25,15:09:45,NA,incomplete,24,number,0,1,left,Purple_Plus_Dots_1.jpg,Green_Star_Grid_1.jpg,Purple_Triangle_Chess_3.jpg,left,621.8000000008033,true,low,NA,NA,NA,NA,NA,NA,NA,false
2qeIDQQR,3ni0wfppjctpbx4ya2wphz5gism608,3x0h8uuit51pt51a1oxfej63og6swq,2qeIDQQR,2020-0188,2020-06-04,14:53:25,15:09:45,NA,incomplete,25,number,0,1,right,Green_Plus_Stripes_1.jpg,Green_Triangle_Grid_4.jpg,Red_Circle_Dots_1.jpg,right,602.0300000000279,true,low,NA,NA,NA,NA,NA,NA,NA,false
2qeIDQQR,3ni0wfppjctpbx4ya2wphz5gism608,3x0h8uuit51pt51a1oxfej63og6swq,2qeIDQQR,2020-0188,2020-06-04,14:53:25,15:09:45,NA,incomplete,26,number,0,1,right,Green_Plus_Dots_2.jpg,Green_Star_Chess_1.jpg,Red_Circle_Grid_2.jpg,right,631.8550000014366,true,low,NA,NA,NA,NA,NA,NA,NA,false
2qeIDQQR,3ni0wfppjctpbx4ya2wphz5gism608,3x0h8uuit51pt51a1oxfej63og6swq,2qeIDQQR,2020-0188,2020-06-04,14:53:25,15:09:45,NA,incomplete,27,number,0,1,left,Blue_Circle_Dots_3.jpg,Purple_Triangle_Stripes_3.jpg,Blue_Plus_Grid_2.jpg,left,1203.6050000006217,true,low,NA,NA,NA,NA,NA,NA,NA,false
2qeIDQQR,3ni0wfppjctpbx4ya2wphz5gism608,3x0h8uuit51pt51a1oxfej63og6swq,2qeIDQQR,2020-0188,2020-06-04,14:53:25,15:09:45,NA,incomplete,28,number,0,1,left,Blue_Triangle_Chess_3.jpg,Red_Plus_Stripes_3.jpg,Blue_Circle_Grid_4.jpg,left,759.5249999994994,true,low,NA,NA,NA,NA,NA,NA,NA,false
2qeIDQQR,3ni0wfppjctpbx4ya2wphz5gism608,3x0h8uuit51pt51a1oxfej63og6swq,2qeIDQQR,2020-0188,2020-06-04,14:53:25,15:09:45,NA,incomplete,29,number,0,1,right,Red_Star_Chess_4.jpg,Red_Triangle_Dots_1.jpg,Green_Circle_Stripes_4.jpg,right,679.1400000001886,true,low,NA,NA,NA,NA,NA,NA,NA,false
2qeIDQQR,3ni0wfppjctpbx4ya2wphz5gism608,3x0h8uuit51pt51a1oxfej63og6swq,2qeIDQQR,2020-0188,2020-06-04,14:53:25,15:09:45,NA,incomplete,30,color,1,1,left,Purple_Triangle_Chess_2.jpg,Purple_Plus_Stripes_4.jpg,Green_Star_Grid_2.jpg,right,640.2349999989383,false,low,NA,NA,NA,NA,NA,NA,NA,false
2qeIDQQR,3ni0wfppjctpbx4ya2wphz5gism608,3x0h8uuit51pt51a1oxfej63og6swq,2qeIDQQR,2020-0188,2020-06-04,14:53:25,15:09:45,NA,incomplete,31,color,1,1,left,Purple_Star_Grid_4.jpg,Purple_Plus_Dots_3.jpg,Red_Triangle_Stripes_4.jpg,right,604.1249999998836,false,low,NA,NA,NA,NA,NA,NA,NA,false
2qeIDQQR,3ni0wfppjctpbx4ya2wphz5gism608,3x0h8uuit51pt51a1oxfej63og6swq,2qeIDQQR,2020-0188,2020-06-04,14:53:25,15:09:45,NA,incomplete,32,color,1,0,right,Green_Triangle_Dots_1.jpg,Blue_Star_Chess_1.jpg,Green_Plus_Stripes_2.jpg,left,745.0000000008149,false,low,NA,NA,NA,NA,NA,NA,NA,false
2qeIDQQR,3ni0wfppjctpbx4ya2wphz5gism608,3x0h8uuit51pt51a1oxfej63og6swq,2qeIDQQR,2020-0188,2020-06-04,14:53:25,15:09:45,NA,incomplete,33,color,1,0,right,Red_Triangle_Dots_2.jpg,Green_Star_Stripes_2.jpg,Red_Circle_Chess_3.jpg,left,640.9199999998673,false,low,NA,NA,NA,NA,NA,NA,NA,false
2qeIDQQR,3ni0wfppjctpbx4ya2wphz5gism608,3x0h8uuit51pt51a1oxfej63og6swq,2qeIDQQR,2020-0188,2020-06-04,14:53:25,15:09:45,NA,incomplete,34,color,1,1,right,Red_Plus_Grid_3.jpg,Blue_Circle_Stripes_3.jpg,Red_Star_Chess_2.jpg,left,660.4449999995413,false,low,NA,NA,NA,NA,NA,NA,NA,false
2qeIDQQR,3ni0wfppjctpbx4ya2wphz5gism608,3x0h8uuit51pt51a1oxfej63og6swq,2qeIDQQR,2020-0188,2020-06-04,14:53:25,15:09:45,NA,incomplete,35,color,1,1,right,Purple_Circle_Chess_4.jpg,Green_Plus_Dots_4.jpg,Purple_Star_Grid_2.jpg,left,607.7399999994668,false,low,NA,NA,NA,NA,NA,NA,NA,false
2qeIDQQR,3ni0wfppjctpbx4ya2wphz5gism608,3x0h8uuit51pt51a1oxfej63og6swq,2qeIDQQR,2020-0188,2020-06-04,14:53:25,15:09:45,NA,incomplete,36,color,1,1,left,Purple_Plus_Dots_4.jpg,Purple_Star_Grid_3.jpg,Blue_Triangle_Stripes_4.jpg,right,540.609999999986,false,low,NA,NA,NA,NA,NA,NA,NA,false
2qeIDQQR,3ni0wfppjctpbx4ya2wphz5gism608,3x0h8uuit51pt51a1oxfej63og6swq,2qeIDQQR,2020-0188,2020-06-04,14:53:25,15:09:45,NA,incomplete,37,color,1,1,left,Green_Plus_Grid_3.jpg,Green_Circle_Chess_1.jpg,Blue_Star_Dots_3.jpg,right,607.070000000007,false,low,NA,NA,NA,NA,NA,NA,NA,false
2qeIDQQR,3ni0wfppjctpbx4ya2wphz5gism608,3x0h8uuit51pt51a1oxfej63og6swq,2qeIDQQR,2020-0188,2020-06-04,14:53:25,15:09:45,NA,incomplete,38,color,1,1,left,Blue_Plus_Chess_4.jpg,Blue_Star_Grid_1.jpg,Red_Circle_Stripes_4.jpg,right,593.2800000009593,false,low,NA,NA,NA,NA,NA,NA,NA,false
2qeIDQQR,3ni0wfppjctpbx4ya2wphz5gism608,3x0h8uuit51pt51a1oxfej63og6swq,2qeIDQQR,2020-0188,2020-06-04,14:53:25,15:09:45,NA,incomplete,39,color,1,0,right,Red_Triangle_Grid_4.jpg,Purple_Star_Dots_4.jpg,Red_Plus_Stripes_1.jpg,right,647.9099999996834,true,low,NA,NA,NA,NA,NA,NA,NA,false
2qeIDQQR,3ni0wfppjctpbx4ya2wphz5gism608,3x0h8uuit51pt51a1oxfej63og6swq,2qeIDQQR,2020-0188,2020-06-04,14:53:25,15:09:45,NA,incomplete,40,color,1,1,left,Green_Star_Grid_3.jpg,Green_Plus_Dots_1.jpg,Purple_Triangle_Stripes_3.jpg,left,835.0100000006496,true,low,NA,NA,NA,NA,NA,NA,NA,false
2qeIDQQR,3ni0wfppjctpbx4ya2wphz5gism608,3x0h8uuit51pt51a1oxfej63og6swq,2qeIDQQR,2020-0188,2020-06-04,14:53:25,15:09:45,NA,incomplete,41,color,1,1,left,Red_Star_Grid_4.jpg,Red_Plus_Chess_2.jpg,Blue_Circle_Dots_4.jpg,left,886.6749999997555,true,low,NA,NA,NA,NA,NA,NA,NA,false
2qeIDQQR,3ni0wfppjctpbx4ya2wphz5gism608,3x0h8uuit51pt51a1oxfej63og6swq,2qeIDQQR,2020-0188,2020-06-04,14:53:25,15:09:45,NA,incomplete,42,color,1,1,right,Green_Circle_Dots_4.jpg,Blue_Triangle_Grid_4.jpg,Green_Plus_Chess_1.jpg,right,815.6899999994203,true,low,NA,NA,NA,NA,NA,NA,NA,false
2qeIDQQR,3ni0wfppjctpbx4ya2wphz5gism608,3x0h8uuit51pt51a1oxfej63og6swq,2qeIDQQR,2020-0188,2020-06-04,14:53:25,15:09:45,NA,incomplete,43,color,1,1,left,Green_Circle_Dots_3.jpg,Green_Triangle_Chess_4.jpg,Blue_Star_Stripes_3.jpg,right,900.6300000001211,false,low,NA,NA,NA,NA,NA,NA,NA,false
2qeIDQQR,3ni0wfppjctpbx4ya2wphz5gism608,3x0h8uuit51pt51a1oxfej63og6swq,2qeIDQQR,2020-0188,2020-06-04,14:53:25,15:09:45,NA,incomplete,44,color,1,1,left,Blue_Circle_Grid_3.jpg,Blue_Plus_Stripes_2.jpg,Green_Star_Dots_3.jpg,left,966.3199999995413,true,low,NA,NA,NA,NA,NA,NA,NA,false
2qeIDQQR,3ni0wfppjctpbx4ya2wphz5gism608,3x0h8uuit51pt51a1oxfej63og6swq,2qeIDQQR,2020-0188,2020-06-04,14:53:25,15:09:45,NA,incomplete,45,color,1,1,right,Green_Circle_Stripes_4.jpg,Blue_Plus_Grid_4.jpg,Green_Star_Dots_2.jpg,right,643.3600000000442,true,low,NA,NA,NA,NA,NA,NA,NA,false
2qeIDQQR,3ni0wfppjctpbx4ya2wphz5gism608,3x0h8uuit51pt51a1oxfej63og6swq,2qeIDQQR,2020-0188,2020-06-04,14:53:25,15:09:45,NA,incomplete,46,color,1,0,right,Red_Circle_Grid_1.jpg,Blue_Triangle_Stripes_1.jpg,Red_Plus_Dots_2.jpg,right,671.2699999989127,true,low,NA,NA,NA,NA,NA,NA,NA,false
2qeIDQQR,3ni0wfppjctpbx4ya2wphz5gism608,3x0h8uuit51pt51a1oxfej63og6swq,2qeIDQQR,2020-0188,2020-06-04,14:53:25,15:09:45,NA,incomplete,47,color,1,1,left,Blue_Star_Stripes_2.jpg,Blue_Circle_Grid_4.jpg,Red_Plus_Chess_2.jpg,left,736.9550000003073,true,low,NA,NA,NA,NA,NA,NA,NA,false
2qeIDQQR,3ni0wfppjctpbx4ya2wphz5gism608,3x0h8uuit51pt51a1oxfej63og6swq,2qeIDQQR,2020-0188,2020-06-04,14:53:25,15:09:45,NA,incomplete,48,color,1,0,left,Red_Plus_Grid_4.jpg,Red_Star_Dots_3.jpg,Blue_Triangle_Stripes_4.jpg,left,808.9700000000303,true,low,NA,NA,NA,NA,NA,NA,NA,false
2qeIDQQR,3ni0wfppjctpbx4ya2wphz5gism608,3x0h8uuit51pt51a1oxfej63og6swq,2qeIDQQR,2020-0188,2020-06-04,14:53:25,15:09:45,NA,incomplete,49,color,1,1,right,Purple_Plus_Grid_3.jpg,Red_Star_Stripes_3.jpg,Purple_Triangle_Dots_1.jpg,right,653.4599999995553,true,low,NA,NA,NA,NA,NA,NA,NA,false
2qeIDQQR,3ni0wfppjctpbx4ya2wphz5gism608,3x0h8uuit51pt51a1oxfej63og6swq,2qeIDQQR,2020-0188,2020-06-04,14:53:25,15:09:45,NA,incomplete,50,color,1,1,left,Blue_Circle_Dots_1.jpg,Blue_Triangle_Stripes_2.jpg,Green_Plus_Grid_1.jpg,left,655.9300000008079,true,low,NA,NA,NA,NA,NA,NA,NA,false
2qeIDQQR,3ni0wfppjctpbx4ya2wphz5gism608,3x0h8uuit51pt51a1oxfej63og6swq,2qeIDQQR,2020-0188,2020-06-04,14:53:25,15:09:45,NA,incomplete,51,color,1,0,right,Red_Plus_Stripes_3.jpg,Purple_Star_Grid_3.jpg,Red_Triangle_Dots_1.jpg,right,658.570000001404,true,low,NA,NA,NA,NA,NA,NA,NA,false
2qeIDQQR,3ni0wfppjctpbx4ya2wphz5gism608,3x0h8uuit51pt51a1oxfej63og6swq,2qeIDQQR,2020-0188,2020-06-04,14:53:25,15:09:45,NA,incomplete,52,color,1,1,right,Red_Circle_Stripes_4.jpg,Purple_Star_Grid_4.jpg,Red_Plus_Chess_2.jpg,right,614.5999999989872,true,low,NA,NA,NA,NA,NA,NA,NA,false
2qeIDQQR,3ni0wfppjctpbx4ya2wphz5gism608,3x0h8uuit51pt51a1oxfej63og6swq,2qeIDQQR,2020-0188,2020-06-04,14:53:25,15:09:45,NA,incomplete,53,color,1,1,left,Red_Star_Chess_1.jpg,Red_Triangle_Stripes_4.jpg,Green_Plus_Dots_1.jpg,left,547.210000000603,true,low,NA,NA,NA,NA,NA,NA,NA,false
2qeIDQQR,3ni0wfppjctpbx4ya2wphz5gism608,3x0h8uuit51pt51a1oxfej63og6swq,2qeIDQQR,2020-0188,2020-06-04,14:53:25,15:09:45,NA,incomplete,54,color,1,1,left,Blue_Circle_Grid_1.jpg,Blue_Star_Dots_3.jpg,Green_Triangle_Stripes_1.jpg,left,652.0650000002352,true,low,NA,NA,NA,NA,NA,NA,NA,false
2qeIDQQR,3ni0wfppjctpbx4ya2wphz5gism608,3x0h8uuit51pt51a1oxfej63og6swq,2qeIDQQR,2020-0188,2020-06-04,14:53:25,15:09:45,NA,incomplete,55,color,1,0,right,Blue_Circle_Dots_1.jpg,Green_Triangle_Grid_1.jpg,Blue_Star_Chess_3.jpg,right,519.4649999993853,true,low,NA,NA,NA,NA,NA,NA,NA,false
2qeIDQQR,3ni0wfppjctpbx4ya2wphz5gism608,3x0h8uuit51pt51a1oxfej63og6swq,2qeIDQQR,2020-0188,2020-06-04,14:53:25,15:09:45,NA,incomplete,56,color,1,1,left,Red_Plus_Chess_3.jpg,Red_Star_Dots_2.jpg,Green_Triangle_Stripes_3.jpg,left,544.3950000008335,true,low,NA,NA,NA,NA,NA,NA,NA,false
2qeIDQQR,3ni0wfppjctpbx4ya2wphz5gism608,3x0h8uuit51pt51a1oxfej63og6swq,2qeIDQQR,2020-0188,2020-06-04,14:53:25,15:09:45,NA,incomplete,57,color,1,0,left,Green_Star_Chess_3.jpg,Green_Triangle_Dots_4.jpg,Blue_Plus_Stripes_3.jpg,left,577.1600000007311,true,low,NA,NA,NA,NA,NA,NA,NA,false
2qeIDQQR,3ni0wfppjctpbx4ya2wphz5gism608,3x0h8uuit51pt51a1oxfej63og6swq,2qeIDQQR,2020-0188,2020-06-04,14:53:25,15:09:45,NA,incomplete,58,color,1,1,right,Red_Circle_Dots_3.jpg,Purple_Plus_Chess_3.jpg,Red_Star_Stripes_1.jpg,right,542.8100000008126,true,low,NA,NA,NA,NA,NA,NA,NA,false
2qeIDQQR,3ni0wfppjctpbx4ya2wphz5gism608,3x0h8uuit51pt51a1oxfej63og6swq,2qeIDQQR,2020-0188,2020-06-04,14:53:25,15:09:45,NA,incomplete,59,color,1,1,right,Green_Plus_Stripes_4.jpg,Purple_Triangle_Grid_4.jpg,Green_Star_Dots_1.jpg,right,591.8899999997229,true,low,NA,NA,NA,NA,NA,NA,NA,false
2qeIDQQR,3ni0wfppjctpbx4ya2wphz5gism608,3x0h8uuit51pt51a1oxfej63og6swq,2qeIDQQR,2020-0188,2020-06-04,14:53:25,15:09:45,NA,incomplete,60,number,0,1,left,Green_Star_Grid_1.jpg,Red_Triangle_Dots_1.jpg,Green_Plus_Stripes_3.jpg,right,484.65500000020256,false,low,NA,NA,NA,NA,NA,NA,NA,false
2qeIDQQR,3ni0wfppjctpbx4ya2wphz5gism608,3x0h8uuit51pt51a1oxfej63og6swq,2qeIDQQR,2020-0188,2020-06-04,14:53:25,15:09:45,NA,incomplete,61,number,0,1,left,Blue_Triangle_Grid_1.jpg,Red_Star_Dots_1.jpg,Blue_Circle_Stripes_3.jpg,right,503.51499999850057,false,low,NA,NA,NA,NA,NA,NA,NA,false
2qeIDQQR,3ni0wfppjctpbx4ya2wphz5gism608,3x0h8uuit51pt51a1oxfej63og6swq,2qeIDQQR,2020-0188,2020-06-04,14:53:25,15:09:45,NA,incomplete,62,number,0,1,left,Blue_Circle_Grid_3.jpg,Red_Plus_Chess_3.jpg,Blue_Star_Stripes_2.jpg,right,633.3899999990826,false,low,NA,NA,NA,NA,NA,NA,NA,false
2qeIDQQR,3ni0wfppjctpbx4ya2wphz5gism608,3x0h8uuit51pt51a1oxfej63og6swq,2qeIDQQR,2020-0188,2020-06-04,14:53:25,15:09:45,NA,incomplete,63,number,0,1,right,Green_Plus_Chess_3.jpg,Green_Circle_Stripes_1.jpg,Purple_Triangle_Grid_3.jpg,left,606.4150000002119,false,low,NA,NA,NA,NA,NA,NA,NA,false
2qeIDQQR,3ni0wfppjctpbx4ya2wphz5gism608,3x0h8uuit51pt51a1oxfej63og6swq,2qeIDQQR,2020-0188,2020-06-04,14:53:25,15:09:45,NA,incomplete,64,number,0,1,left,Blue_Plus_Dots_4.jpg,Purple_Circle_Chess_4.jpg,Blue_Triangle_Stripes_3.jpg,left,699.8049999983632,true,low,NA,NA,NA,NA,NA,NA,NA,false
2qeIDQQR,3ni0wfppjctpbx4ya2wphz5gism608,3x0h8uuit51pt51a1oxfej63og6swq,2qeIDQQR,2020-0188,2020-06-04,14:53:25,15:09:45,NA,incomplete,65,number,0,1,right,Red_Plus_Stripes_4.jpg,Red_Triangle_Grid_2.jpg,Green_Star_Chess_4.jpg,right,876.9600000014179,true,low,NA,NA,NA,NA,NA,NA,NA,false
2qeIDQQR,3ni0wfppjctpbx4ya2wphz5gism608,3x0h8uuit51pt51a1oxfej63og6swq,2qeIDQQR,2020-0188,2020-06-04,14:53:25,15:09:45,NA,incomplete,66,number,0,1,left,Blue_Triangle_Stripes_4.jpg,Purple_Plus_Chess_4.jpg,Blue_Circle_Dots_1.jpg,left,707.9049999992712,true,low,NA,NA,NA,NA,NA,NA,NA,false
2qeIDQQR,3ni0wfppjctpbx4ya2wphz5gism608,3x0h8uuit51pt51a1oxfej63og6swq,2qeIDQQR,2020-0188,2020-06-04,14:53:25,15:09:45,NA,incomplete,67,number,0,0,right,Red_Star_Grid_2.jpg,Red_Circle_Dots_4.jpg,Purple_Triangle_Chess_2.jpg,right,654.684999999532,true,low,NA,NA,NA,NA,NA,NA,NA,false
2qeIDQQR,3ni0wfppjctpbx4ya2wphz5gism608,3x0h8uuit51pt51a1oxfej63og6swq,2qeIDQQR,2020-0188,2020-06-04,14:53:25,15:09:45,NA,incomplete,68,number,0,1,left,Blue_Circle_Stripes_3.jpg,Red_Plus_Dots_3.jpg,Blue_Triangle_Chess_1.jpg,left,673.5649999991292,true,low,NA,NA,NA,NA,NA,NA,NA,false
2qeIDQQR,3ni0wfppjctpbx4ya2wphz5gism608,3x0h8uuit51pt51a1oxfej63og6swq,2qeIDQQR,2020-0188,2020-06-04,14:53:25,15:09:45,NA,incomplete,69,number,0,1,left,Blue_Plus_Stripes_4.jpg,Green_Triangle_Grid_4.jpg,Blue_Star_Dots_1.jpg,left,597.2550000005867,true,low,NA,NA,NA,NA,NA,NA,NA,false
2qeIDQQR,3ni0wfppjctpbx4ya2wphz5gism608,3x0h8uuit51pt51a1oxfej63og6swq,2qeIDQQR,2020-0188,2020-06-04,14:53:25,15:09:45,NA,incomplete,70,number,0,1,left,Blue_Star_Chess_3.jpg,Purple_Triangle_Stripes_3.jpg,Blue_Circle_Grid_2.jpg,left,602.2549999997718,true,low,NA,NA,NA,NA,NA,NA,NA,false
2qeIDQQR,3ni0wfppjctpbx4ya2wphz5gism608,3x0h8uuit51pt51a1oxfej63og6swq,2qeIDQQR,2020-0188,2020-06-04,14:53:25,15:09:45,NA,incomplete,71,number,0,1,left,Purple_Circle_Chess_3.jpg,Blue_Plus_Grid_3.jpg,Purple_Triangle_Dots_4.jpg,left,568.2149999993271,true,low,NA,NA,NA,NA,NA,NA,NA,false
2qeIDQQR,3ni0wfppjctpbx4ya2wphz5gism608,3x0h8uuit51pt51a1oxfej63og6swq,2qeIDQQR,2020-0188,2020-06-04,14:53:25,15:09:45,NA,incomplete,72,number,0,0,left,Purple_Plus_Chess_4.jpg,Blue_Triangle_Dots_4.jpg,Purple_Star_Grid_1.jpg,left,607.0799999997835,true,low,NA,NA,NA,NA,NA,NA,NA,false
2qeIDQQR,3ni0wfppjctpbx4ya2wphz5gism608,3x0h8uuit51pt51a1oxfej63og6swq,2qeIDQQR,2020-0188,2020-06-04,14:53:25,15:09:45,NA,incomplete,73,number,0,1,right,Red_Plus_Stripes_3.jpg,Red_Star_Dots_1.jpg,Purple_Triangle_Grid_3.jpg,right,651.89500000095,true,low,NA,NA,NA,NA,NA,NA,NA,false
2qeIDQQR,3ni0wfppjctpbx4ya2wphz5gism608,3x0h8uuit51pt51a1oxfej63og6swq,2qeIDQQR,2020-0188,2020-06-04,14:53:25,15:09:45,NA,incomplete,74,number,0,1,right,Red_Circle_Stripes_4.jpg,Red_Star_Grid_1.jpg,Purple_Triangle_Chess_4.jpg,right,600.6499999985099,true,low,NA,NA,NA,NA,NA,NA,NA,false
2qeIDQQR,3ni0wfppjctpbx4ya2wphz5gism608,3x0h8uuit51pt51a1oxfej63og6swq,2qeIDQQR,2020-0188,2020-06-04,14:53:25,15:09:45,NA,incomplete,75,number,0,1,right,Red_Circle_Dots_3.jpg,Red_Star_Grid_2.jpg,Purple_Plus_Stripes_3.jpg,right,533.71999999939,true,low,NA,NA,NA,NA,NA,NA,NA,false
2qeIDQQR,3ni0wfppjctpbx4ya2wphz5gism608,3x0h8uuit51pt51a1oxfej63og6swq,2qeIDQQR,2020-0188,2020-06-04,14:53:25,15:09:45,NA,incomplete,76,number,0,1,left,Blue_Star_Chess_1.jpg,Red_Triangle_Stripes_1.jpg,Blue_Circle_Dots_2.jpg,left,598.5850000015926,true,low,NA,NA,NA,NA,NA,NA,NA,false
2qeIDQQR,3ni0wfppjctpbx4ya2wphz5gism608,3x0h8uuit51pt51a1oxfej63og6swq,2qeIDQQR,2020-0188,2020-06-04,14:53:25,15:09:45,NA,incomplete,77,number,0,1,left,Purple_Plus_Grid_3.jpg,Blue_Triangle_Chess_3.jpg,Purple_Circle_Dots_1.jpg,left,548.5250000001397,true,low,NA,NA,NA,NA,NA,NA,NA,false
2qeIDQQR,3ni0wfppjctpbx4ya2wphz5gism608,3x0h8uuit51pt51a1oxfej63og6swq,2qeIDQQR,2020-0188,2020-06-04,14:53:25,15:09:45,NA,incomplete,78,number,0,0,left,Red_Plus_Grid_4.jpg,Purple_Circle_Chess_4.jpg,Red_Triangle_Dots_1.jpg,left,540.3999999999069,true,low,NA,NA,NA,NA,NA,NA,NA,false
2qeIDQQR,3ni0wfppjctpbx4ya2wphz5gism608,3x0h8uuit51pt51a1oxfej63og6swq,2qeIDQQR,2020-0188,2020-06-04,14:53:25,15:09:45,NA,incomplete,79,number,0,1,left,Blue_Plus_Stripes_2.jpg,Green_Circle_Chess_2.jpg,Blue_Star_Grid_4.jpg,left,629.0300000000279,true,low,NA,NA,NA,NA,NA,NA,NA,false
2qeIDQQR,3ni0wfppjctpbx4ya2wphz5gism608,3x0h8uuit51pt51a1oxfej63og6swq,2qeIDQQR,2020-0188,2020-06-04,14:53:25,15:09:45,NA,incomplete,80,number,0,1,left,Red_Plus_Dots_1.jpg,Green_Star_Chess_1.jpg,Red_Circle_Stripes_4.jpg,left,609.1299999989569,true,low,NA,NA,NA,NA,NA,NA,NA,false
2qeIDQQR,3ni0wfppjctpbx4ya2wphz5gism608,3x0h8uuit51pt51a1oxfej63og6swq,2qeIDQQR,2020-0188,2020-06-04,14:53:25,15:09:45,NA,incomplete,81,number,0,1,right,Red_Circle_Grid_4.jpg,Red_Plus_Chess_3.jpg,Green_Star_Dots_4.jpg,right,566.039999999688,true,low,NA,NA,NA,NA,NA,NA,NA,false
2qeIDQQR,3ni0wfppjctpbx4ya2wphz5gism608,3x0h8uuit51pt51a1oxfej63og6swq,2qeIDQQR,2020-0188,2020-06-04,14:53:25,15:09:45,NA,incomplete,82,number,0,1,right,Green_Plus_Grid_4.jpg,Green_Circle_Dots_2.jpg,Blue_Star_Chess_4.jpg,right,525.914999998291,true,low,NA,NA,NA,NA,NA,NA,NA,false
2qeIDQQR,3ni0wfppjctpbx4ya2wphz5gism608,3x0h8uuit51pt51a1oxfej63og6swq,2qeIDQQR,2020-0188,2020-06-04,14:53:25,15:09:45,NA,incomplete,83,number,0,0,left,Purple_Plus_Dots_3.jpg,Red_Circle_Grid_3.jpg,Purple_Star_Chess_2.jpg,left,766.5649999999441,true,low,NA,NA,NA,NA,NA,NA,NA,false
2qeIDQQR,3ni0wfppjctpbx4ya2wphz5gism608,3x0h8uuit51pt51a1oxfej63og6swq,2qeIDQQR,2020-0188,2020-06-04,14:53:25,15:09:45,NA,incomplete,84,number,0,1,right,Green_Triangle_Grid_2.jpg,Green_Star_Stripes_3.jpg,Red_Plus_Dots_2.jpg,right,677.354999999865,true,low,NA,NA,NA,NA,NA,NA,NA,false
2qeIDQQR,3ni0wfppjctpbx4ya2wphz5gism608,3x0h8uuit51pt51a1oxfej63og6swq,2qeIDQQR,2020-0188,2020-06-04,14:53:25,15:09:45,NA,incomplete,85,number,0,1,right,Blue_Triangle_Dots_4.jpg,Blue_Plus_Grid_1.jpg,Green_Star_Chess_4.jpg,right,543.5549999984214,true,low,NA,NA,NA,NA,NA,NA,NA,false
2qeIDQQR,3ni0wfppjctpbx4ya2wphz5gism608,3x0h8uuit51pt51a1oxfej63og6swq,2qeIDQQR,2020-0188,2020-06-04,14:53:25,15:09:45,NA,incomplete,86,number,0,1,left,Blue_Star_Grid_2.jpg,Red_Triangle_Dots_2.jpg,Blue_Circle_Chess_3.jpg,left,583.4599999998463,true,low,NA,NA,NA,NA,NA,NA,NA,false
2qeIDQQR,3ni0wfppjctpbx4ya2wphz5gism608,3x0h8uuit51pt51a1oxfej63og6swq,2qeIDQQR,2020-0188,2020-06-04,14:53:25,15:09:45,NA,incomplete,87,number,0,1,right,Red_Circle_Chess_3.jpg,Red_Plus_Grid_2.jpg,Blue_Triangle_Stripes_3.jpg,right,534.3200000007637,true,low,NA,NA,NA,NA,NA,NA,NA,false
2qeIDQQR,3ni0wfppjctpbx4ya2wphz5gism608,3x0h8uuit51pt51a1oxfej63og6swq,2qeIDQQR,2020-0188,2020-06-04,14:53:25,15:09:45,NA,incomplete,88,number,0,1,right,Red_Star_Stripes_2.jpg,Red_Plus_Dots_1.jpg,Blue_Circle_Chess_2.jpg,right,647.0950000003213,true,low,NA,NA,NA,NA,NA,NA,NA,false
2qeIDQQR,3ni0wfppjctpbx4ya2wphz5gism608,3x0h8uuit51pt51a1oxfej63og6swq,2qeIDQQR,2020-0188,2020-06-04,14:53:25,15:09:45,NA,incomplete,89,number,0,0,left,Blue_Plus_Chess_3.jpg,Purple_Triangle_Grid_3.jpg,Blue_Circle_Dots_4.jpg,left,538.7900000005029,true,low,NA,NA,NA,NA,NA,NA,NA,false
2qeIDQQR,3ni0wfppjctpbx4ya2wphz5gism608,3x0h8uuit51pt51a1oxfej63og6swq,2qeIDQQR,2020-0188,2020-06-04,14:53:25,15:09:45,NA,incomplete,90,color,1,1,left,Green_Plus_Chess_2.jpg,Green_Star_Dots_3.jpg,Purple_Circle_Grid_2.jpg,right,617.9249999986496,false,low,NA,NA,NA,NA,NA,NA,NA,false
2qeIDQQR,3ni0wfppjctpbx4ya2wphz5gism608,3x0h8uuit51pt51a1oxfej63og6swq,2qeIDQQR,2020-0188,2020-06-04,14:53:25,15:09:45,NA,incomplete,91,color,1,1,right,Green_Star_Grid_1.jpg,Red_Circle_Stripes_1.jpg,Green_Plus_Dots_4.jpg,left,735.8150000000605,false,low,NA,NA,NA,NA,NA,NA,NA,false
2qeIDQQR,3ni0wfppjctpbx4ya2wphz5gism608,3x0h8uuit51pt51a1oxfej63og6swq,2qeIDQQR,2020-0188,2020-06-04,14:53:25,15:09:45,NA,incomplete,92,color,1,1,left,Blue_Star_Chess_2.jpg,Blue_Plus_Stripes_3.jpg,Green_Circle_Dots_2.jpg,left,943.7849999994505,true,low,NA,NA,NA,NA,NA,NA,NA,false
2qeIDQQR,3ni0wfppjctpbx4ya2wphz5gism608,3x0h8uuit51pt51a1oxfej63og6swq,2qeIDQQR,2020-0188,2020-06-04,14:53:25,15:09:45,NA,incomplete,93,color,1,1,right,Blue_Plus_Chess_1.jpg,Red_Triangle_Dots_1.jpg,Blue_Star_Stripes_2.jpg,right,702.5250000006054,true,low,NA,NA,NA,NA,NA,NA,NA,false
2qeIDQQR,3ni0wfppjctpbx4ya2wphz5gism608,3x0h8uuit51pt51a1oxfej63og6swq,2qeIDQQR,2020-0188,2020-06-04,14:53:25,15:09:45,NA,incomplete,94,color,1,0,right,Green_Plus_Stripes_4.jpg,Red_Circle_Dots_4.jpg,Green_Triangle_Grid_2.jpg,right,632.1299999998882,true,low,NA,NA,NA,NA,NA,NA,NA,false
2qeIDQQR,3ni0wfppjctpbx4ya2wphz5gism608,3x0h8uuit51pt51a1oxfej63og6swq,2qeIDQQR,2020-0188,2020-06-04,14:53:25,15:09:45,NA,incomplete,95,color,1,1,right,Green_Circle_Dots_3.jpg,Purple_Star_Stripes_3.jpg,Green_Plus_Chess_4.jpg,right,643.3749999996508,true,low,NA,NA,NA,NA,NA,NA,NA,false
2qeIDQQR,3ni0wfppjctpbx4ya2wphz5gism608,3x0h8uuit51pt51a1oxfej63og6swq,2qeIDQQR,2020-0188,2020-06-04,14:53:25,15:09:45,NA,incomplete,96,color,1,1,left,Blue_Triangle_Stripes_2.jpg,Blue_Plus_Grid_4.jpg,Red_Circle_Chess_2.jpg,left,565.8399999992689,true,low,NA,NA,NA,NA,NA,NA,NA,false
2qeIDQQR,3ni0wfppjctpbx4ya2wphz5gism608,3x0h8uuit51pt51a1oxfej63og6swq,2qeIDQQR,2020-0188,2020-06-04,14:53:25,15:09:45,NA,incomplete,97,color,1,0,right,Red_Triangle_Chess_4.jpg,Blue_Circle_Dots_4.jpg,Red_Plus_Grid_1.jpg,right,615.0249999992084,true,low,NA,NA,NA,NA,NA,NA,NA,false
2qeIDQQR,3ni0wfppjctpbx4ya2wphz5gism608,3x0h8uuit51pt51a1oxfej63og6swq,2qeIDQQR,2020-0188,2020-06-04,14:53:25,15:09:45,NA,incomplete,98,color,1,1,right,Purple_Plus_Stripes_4.jpg,Blue_Triangle_Grid_4.jpg,Purple_Circle_Chess_3.jpg,right,547.9850000010338,true,low,NA,NA,NA,NA,NA,NA,NA,false
2qeIDQQR,3ni0wfppjctpbx4ya2wphz5gism608,3x0h8uuit51pt51a1oxfej63og6swq,2qeIDQQR,2020-0188,2020-06-04,14:53:25,15:09:45,NA,incomplete,99,color,1,1,left,Blue_Star_Stripes_1.jpg,Blue_Circle_Chess_4.jpg,Red_Plus_Dots_1.jpg,left,524.6050000005635,true,low,NA,NA,NA,NA,NA,NA,NA,false
2qeIDQQR,3ni0wfppjctpbx4ya2wphz5gism608,3x0h8uuit51pt51a1oxfej63og6swq,2qeIDQQR,2020-0188,2020-06-04,14:53:25,15:09:45,NA,incomplete,100,color,1,1,right,Red_Circle_Chess_1.jpg,Purple_Star_Dots_1.jpg,Red_Triangle_Grid_4.jpg,right,508.37999999930616,true,low,NA,NA,NA,NA,NA,NA,NA,false
2qeIDQQR,3ni0wfppjctpbx4ya2wphz5gism608,3x0h8uuit51pt51a1oxfej63og6swq,2qeIDQQR,2020-0188,2020-06-04,14:53:25,15:09:45,NA,incomplete,101,color,1,1,right,Blue_Circle_Chess_4.jpg,Purple_Star_Grid_4.jpg,Blue_Triangle_Stripes_3.jpg,right,518.5750000000698,true,low,NA,NA,NA,NA,NA,NA,NA,false
2qeIDQQR,3ni0wfppjctpbx4ya2wphz5gism608,3x0h8uuit51pt51a1oxfej63og6swq,2qeIDQQR,2020-0188,2020-06-04,14:53:25,15:09:45,NA,incomplete,102,color,1,1,left,Blue_Circle_Chess_3.jpg,Blue_Star_Stripes_4.jpg,Purple_Triangle_Dots_3.jpg,left,551.390000000596,true,low,NA,NA,NA,NA,NA,NA,NA,false
2qeIDQQR,3ni0wfppjctpbx4ya2wphz5gism608,3x0h8uuit51pt51a1oxfej63og6swq,2qeIDQQR,2020-0188,2020-06-04,14:53:25,15:09:45,NA,incomplete,103,color,1,1,right,Green_Triangle_Stripes_1.jpg,Red_Plus_Chess_1.jpg,Green_Circle_Grid_3.jpg,right,455.41000000049826,true,low,NA,NA,NA,NA,NA,NA,NA,false
2qeIDQQR,3ni0wfppjctpbx4ya2wphz5gism608,3x0h8uuit51pt51a1oxfej63og6swq,2qeIDQQR,2020-0188,2020-06-04,14:53:25,15:09:45,NA,incomplete,104,color,1,0,right,Green_Circle_Dots_1.jpg,Blue_Star_Chess_1.jpg,Green_Plus_Grid_3.jpg,right,475.19499999901745,true,low,NA,NA,NA,NA,NA,NA,NA,false
2qeIDQQR,3ni0wfppjctpbx4ya2wphz5gism608,3x0h8uuit51pt51a1oxfej63og6swq,2qeIDQQR,2020-0188,2020-06-04,14:53:25,15:09:45,NA,incomplete,105,color,1,0,left,Purple_Triangle_Stripes_2.jpg,Purple_Circle_Chess_3.jpg,Green_Star_Dots_2.jpg,left,519.2949999981793,true,low,NA,NA,NA,NA,NA,NA,NA,false
2qeIDQQR,3ni0wfppjctpbx4ya2wphz5gism608,3x0h8uuit51pt51a1oxfej63og6swq,2qeIDQQR,2020-0188,2020-06-04,14:53:25,15:09:45,NA,incomplete,106,color,1,1,left,Purple_Circle_Chess_2.jpg,Purple_Star_Stripes_4.jpg,Green_Plus_Dots_2.jpg,left,584.0649999991292,true,low,NA,NA,NA,NA,NA,NA,NA,false
2qeIDQQR,3ni0wfppjctpbx4ya2wphz5gism608,3x0h8uuit51pt51a1oxfej63og6swq,2qeIDQQR,2020-0188,2020-06-04,14:53:25,15:09:45,NA,incomplete,107,color,1,1,right,Blue_Plus_Stripes_3.jpg,Red_Triangle_Chess_3.jpg,Blue_Circle_Dots_1.jpg,right,541.9000000001397,true,low,NA,NA,NA,NA,NA,NA,NA,false
2qeIDQQR,3ni0wfppjctpbx4ya2wphz5gism608,3x0h8uuit51pt51a1oxfej63og6swq,2qeIDQQR,2020-0188,2020-06-04,14:53:25,15:09:45,NA,incomplete,108,color,1,1,right,Blue_Triangle_Dots_1.jpg,Red_Circle_Stripes_1.jpg,Blue_Star_Chess_2.jpg,right,534.8049999993527,true,low,NA,NA,NA,NA,NA,NA,NA,false
2qeIDQQR,3ni0wfppjctpbx4ya2wphz5gism608,3x0h8uuit51pt51a1oxfej63og6swq,2qeIDQQR,2020-0188,2020-06-04,14:53:25,15:09:45,NA,incomplete,109,color,1,0,left,Green_Circle_Stripes_1.jpg,Green_Triangle_Dots_4.jpg,Red_Plus_Chess_1.jpg,left,558.6800000001676,true,low,NA,NA,NA,NA,NA,NA,NA,false
2qeIDQQR,3ni0wfppjctpbx4ya2wphz5gism608,3x0h8uuit51pt51a1oxfej63og6swq,2qeIDQQR,2020-0188,2020-06-04,14:53:25,15:09:45,NA,incomplete,110,color,1,1,right,Red_Circle_Stripes_2.jpg,Blue_Plus_Dots_2.jpg,Red_Star_Chess_3.jpg,right,511.3350000010105,true,low,NA,NA,NA,NA,NA,NA,NA,false
2qeIDQQR,3ni0wfppjctpbx4ya2wphz5gism608,3x0h8uuit51pt51a1oxfej63og6swq,2qeIDQQR,2020-0188,2020-06-04,14:53:25,15:09:45,NA,incomplete,111,color,1,1,left,Blue_Plus_Grid_2.jpg,Blue_Star_Stripes_3.jpg,Red_Circle_Dots_2.jpg,left,511.4599999997299,true,low,NA,NA,NA,NA,NA,NA,NA,false
2qeIDQQR,3ni0wfppjctpbx4ya2wphz5gism608,3x0h8uuit51pt51a1oxfej63og6swq,2qeIDQQR,2020-0188,2020-06-04,14:53:25,15:09:45,NA,incomplete,112,color,1,1,left,Green_Triangle_Chess_3.jpg,Green_Star_Stripes_4.jpg,Purple_Circle_Grid_3.jpg,left,641.3300000004238,true,low,NA,NA,NA,NA,NA,NA,NA,false
2qeIDQQR,3ni0wfppjctpbx4ya2wphz5gism608,3x0h8uuit51pt51a1oxfej63og6swq,2qeIDQQR,2020-0188,2020-06-04,14:53:25,15:09:45,NA,incomplete,113,color,1,1,left,Purple_Circle_Dots_3.jpg,Purple_Star_Stripes_1.jpg,Blue_Triangle_Grid_3.jpg,left,597.2099999998463,true,low,NA,NA,NA,NA,NA,NA,NA,false
2qeIDQQR,3ni0wfppjctpbx4ya2wphz5gism608,3x0h8uuit51pt51a1oxfej63og6swq,2qeIDQQR,2020-0188,2020-06-04,14:53:25,15:09:45,NA,incomplete,114,color,1,1,left,Red_Triangle_Stripes_4.jpg,Red_Plus_Grid_2.jpg,Blue_Circle_Dots_4.jpg,left,627.1149999992922,true,low,NA,NA,NA,NA,NA,NA,NA,false
2qeIDQQR,3ni0wfppjctpbx4ya2wphz5gism608,3x0h8uuit51pt51a1oxfej63og6swq,2qeIDQQR,2020-0188,2020-06-04,14:53:25,15:09:45,NA,incomplete,115,color,1,1,right,Purple_Plus_Stripes_4.jpg,Green_Triangle_Grid_4.jpg,Purple_Star_Chess_3.jpg,right,511.49500000069384,true,low,NA,NA,NA,NA,NA,NA,NA,false
2qeIDQQR,3ni0wfppjctpbx4ya2wphz5gism608,3x0h8uuit51pt51a1oxfej63og6swq,2qeIDQQR,2020-0188,2020-06-04,14:53:25,15:09:45,NA,incomplete,116,color,1,1,right,Green_Triangle_Chess_1.jpg,Red_Plus_Stripes_1.jpg,Green_Star_Grid_2.jpg,right,504.7299999988172,true,low,NA,NA,NA,NA,NA,NA,NA,false
2qeIDQQR,3ni0wfppjctpbx4ya2wphz5gism608,3x0h8uuit51pt51a1oxfej63og6swq,2qeIDQQR,2020-0188,2020-06-04,14:53:25,15:09:45,NA,incomplete,117,color,1,1,right,Purple_Circle_Stripes_1.jpg,Blue_Triangle_Chess_1.jpg,Purple_Star_Dots_3.jpg,right,506.71499999950174,true,low,NA,NA,NA,NA,NA,NA,NA,false
2qeIDQQR,3ni0wfppjctpbx4ya2wphz5gism608,3x0h8uuit51pt51a1oxfej63og6swq,2qeIDQQR,2020-0188,2020-06-04,14:53:25,15:09:45,NA,incomplete,118,color,1,1,right,Blue_Triangle_Chess_3.jpg,Purple_Star_Dots_3.jpg,Blue_Plus_Stripes_1.jpg,right,547.6250000010477,true,low,NA,NA,NA,NA,NA,NA,NA,false
2qeIDQQR,3ni0wfppjctpbx4ya2wphz5gism608,3x0h8uuit51pt51a1oxfej63og6swq,2qeIDQQR,2020-0188,2020-06-04,14:53:25,15:09:45,NA,incomplete,119,color,1,1,right,Green_Plus_Stripes_4.jpg,Red_Triangle_Grid_4.jpg,Green_Circle_Chess_2.jpg,right,595.5699999994831,true,low,NA,NA,NA,NA,NA,NA,NA,false
2qeIDQQR,3ni0wfppjctpbx4ya2wphz5gism608,3x0h8uuit51pt51a1oxfej63og6swq,2qeIDQQR,2020-0188,2020-06-04,14:53:25,15:09:45,NA,incomplete,120,race,2,1,left,C_F_08.jpg,C_M_10.jpg,A_F_09.jpg,NA,NA,NA,low,NA,NA,NA,NA,NA,NA,NA,false
2qeIDQQR,3ni0wfppjctpbx4ya2wphz5gism608,3x0h8uuit51pt51a1oxfej63og6swq,2qeIDQQR,2020-0188,2020-06-04,14:53:25,15:09:45,NA,incomplete,121,race,2,1,right,C_M_16.jpg,A_M_02.jpg,C_F_15.jpg,left,912.1799999994691,false,low,NA,NA,NA,NA,NA,NA,NA,false
2qeIDQQR,3ni0wfppjctpbx4ya2wphz5gism608,3x0h8uuit51pt51a1oxfej63og6swq,2qeIDQQR,2020-0188,2020-06-04,14:53:25,15:09:45,NA,incomplete,122,race,2,1,left,A_F_13.jpg,A_M_03.jpg,C_F_16.jpg,right,760.2700000007171,false,low,NA,NA,NA,NA,NA,NA,NA,false
2qeIDQQR,3ni0wfppjctpbx4ya2wphz5gism608,3x0h8uuit51pt51a1oxfej63og6swq,2qeIDQQR,2020-0188,2020-06-04,14:53:25,15:09:45,NA,incomplete,123,race,2,1,right,C_F_15.jpg,A_F_02.jpg,C_M_04.jpg,right,911.285000000149,true,low,NA,NA,NA,NA,NA,NA,NA,false
2qeIDQQR,3ni0wfppjctpbx4ya2wphz5gism608,3x0h8uuit51pt51a1oxfej63og6swq,2qeIDQQR,2020-0188,2020-06-04,14:53:25,15:09:45,NA,incomplete,124,race,2,1,right,A_F_04.jpg,C_F_15.jpg,A_M_12.jpg,right,758.8649999998743,true,low,NA,NA,NA,NA,NA,NA,NA,false
2qeIDQQR,3ni0wfppjctpbx4ya2wphz5gism608,3x0h8uuit51pt51a1oxfej63og6swq,2qeIDQQR,2020-0188,2020-06-04,14:53:25,15:09:45,NA,incomplete,125,race,2,1,right,A_F_10.jpg,C_F_02.jpg,A_M_11.jpg,right,798.5649999991292,true,low,NA,NA,NA,NA,NA,NA,NA,false
2qeIDQQR,3ni0wfppjctpbx4ya2wphz5gism608,3x0h8uuit51pt51a1oxfej63og6swq,2qeIDQQR,2020-0188,2020-06-04,14:53:25,15:09:45,NA,incomplete,126,race,2,1,right,A_F_02.jpg,C_F_08.jpg,A_M_14.jpg,right,874.7050000000745,true,low,NA,NA,NA,NA,NA,NA,NA,false
2qeIDQQR,3ni0wfppjctpbx4ya2wphz5gism608,3x0h8uuit51pt51a1oxfej63og6swq,2qeIDQQR,2020-0188,2020-06-04,14:53:25,15:09:45,NA,incomplete,127,race,2,0,right,A_F_06.jpg,C_F_14.jpg,A_M_15.jpg,right,892.5550000004005,true,low,NA,NA,NA,NA,NA,NA,NA,false
2qeIDQQR,3ni0wfppjctpbx4ya2wphz5gism608,3x0h8uuit51pt51a1oxfej63og6swq,2qeIDQQR,2020-0188,2020-06-04,14:53:25,15:09:45,NA,incomplete,128,race,2,1,left,C_M_15.jpg,C_F_10.jpg,A_M_07.jpg,right,1085.4849999995204,false,low,NA,NA,NA,NA,NA,NA,NA,false
2qeIDQQR,3ni0wfppjctpbx4ya2wphz5gism608,3x0h8uuit51pt51a1oxfej63og6swq,2qeIDQQR,2020-0188,2020-06-04,14:53:25,15:09:45,NA,incomplete,129,race,2,0,left,A_F_03.jpg,A_M_02.jpg,C_F_14.jpg,right,791.0449999999255,false,low,NA,NA,NA,NA,NA,NA,NA,false
2qeIDQQR,3ni0wfppjctpbx4ya2wphz5gism608,3x0h8uuit51pt51a1oxfej63og6swq,2qeIDQQR,2020-0188,2020-06-04,14:53:25,15:09:45,NA,incomplete,130,race,2,1,right,C_M_12.jpg,A_M_06.jpg,C_F_08.jpg,left,771.9299999990035,false,low,NA,NA,NA,NA,NA,NA,NA,false
2qeIDQQR,3ni0wfppjctpbx4ya2wphz5gism608,3x0h8uuit51pt51a1oxfej63og6swq,2qeIDQQR,2020-0188,2020-06-04,14:53:25,15:09:45,NA,incomplete,131,race,2,0,left,C_M_01.jpg,C_F_04.jpg,A_M_12.jpg,right,1121.914999999688,false,low,NA,NA,NA,NA,NA,NA,NA,false
2qeIDQQR,3ni0wfppjctpbx4ya2wphz5gism608,3x0h8uuit51pt51a1oxfej63og6swq,2qeIDQQR,2020-0188,2020-06-04,14:53:25,15:09:45,NA,incomplete,132,race,2,1,right,C_F_13.jpg,A_F_07.jpg,C_M_15.jpg,right,848.0249999993248,true,low,NA,NA,NA,NA,NA,NA,NA,false
2qeIDQQR,3ni0wfppjctpbx4ya2wphz5gism608,3x0h8uuit51pt51a1oxfej63og6swq,2qeIDQQR,2020-0188,2020-06-04,14:53:25,15:09:45,NA,incomplete,133,race,2,0,right,C_F_02.jpg,A_F_14.jpg,C_M_15.jpg,left,1123.7799999999115,false,low,NA,NA,NA,NA,NA,NA,NA,false
2qeIDQQR,3ni0wfppjctpbx4ya2wphz5gism608,3x0h8uuit51pt51a1oxfej63og6swq,2qeIDQQR,2020-0188,2020-06-04,14:53:25,15:09:45,NA,incomplete,134,race,2,1,left,A_F_03.jpg,A_M_09.jpg,C_F_14.jpg,right,931.234999999986,false,low,NA,NA,NA,NA,NA,NA,NA,false
2qeIDQQR,3ni0wfppjctpbx4ya2wphz5gism608,3x0h8uuit51pt51a1oxfej63og6swq,2qeIDQQR,2020-0188,2020-06-04,14:53:25,15:09:45,NA,incomplete,135,race,2,1,right,A_F_03.jpg,C_F_11.jpg,A_M_08.jpg,right,1097.7849999999162,true,low,NA,NA,NA,NA,NA,NA,NA,false
2qeIDQQR,3ni0wfppjctpbx4ya2wphz5gism608,3x0h8uuit51pt51a1oxfej63og6swq,2qeIDQQR,2020-0188,2020-06-04,14:53:25,15:09:45,NA,incomplete,136,race,2,1,left,A_F_05.jpg,A_M_15.jpg,C_F_12.jpg,right,1082.5050000002375,false,low,NA,NA,NA,NA,NA,NA,NA,false
2qeIDQQR,3ni0wfppjctpbx4ya2wphz5gism608,3x0h8uuit51pt51a1oxfej63og6swq,2qeIDQQR,2020-0188,2020-06-04,14:53:25,15:09:45,NA,incomplete,137,race,2,1,left,A_M_02.jpg,A_F_14.jpg,C_M_03.jpg,left,1051.154999999213,true,low,NA,NA,NA,NA,NA,NA,NA,false
2qeIDQQR,3ni0wfppjctpbx4ya2wphz5gism608,3x0h8uuit51pt51a1oxfej63og6swq,2qeIDQQR,2020-0188,2020-06-04,14:53:25,15:09:45,NA,incomplete,138,race,2,1,left,C_F_06.jpg,C_M_15.jpg,A_F_12.jpg,left,853.5649999994785,true,low,NA,NA,NA,NA,NA,NA,NA,false
2qeIDQQR,3ni0wfppjctpbx4ya2wphz5gism608,3x0h8uuit51pt51a1oxfej63og6swq,2qeIDQQR,2020-0188,2020-06-04,14:53:25,15:09:45,NA,incomplete,139,race,2,1,right,A_M_13.jpg,C_M_11.jpg,A_F_06.jpg,left,951.9049999999115,false,low,NA,NA,NA,NA,NA,NA,NA,false
2qeIDQQR,3ni0wfppjctpbx4ya2wphz5gism608,3x0h8uuit51pt51a1oxfej63og6swq,2qeIDQQR,2020-0188,2020-06-04,14:53:25,15:09:45,NA,incomplete,140,gender,3,1,left,C_M_09.jpg,A_M_07.jpg,C_F_10.jpg,right,934.8350000000792,false,low,NA,NA,NA,NA,NA,NA,NA,false
2qeIDQQR,3ni0wfppjctpbx4ya2wphz5gism608,3x0h8uuit51pt51a1oxfej63og6swq,2qeIDQQR,2020-0188,2020-06-04,14:53:25,15:09:45,NA,incomplete,141,gender,3,1,left,A_M_12.jpg,C_M_14.jpg,A_F_06.jpg,left,1045.6249999988358,true,low,NA,NA,NA,NA,NA,NA,NA,false
2qeIDQQR,3ni0wfppjctpbx4ya2wphz5gism608,3x0h8uuit51pt51a1oxfej63og6swq,2qeIDQQR,2020-0188,2020-06-04,14:53:25,15:09:45,NA,incomplete,142,gender,3,0,right,C_F_09.jpg,C_M_10.jpg,A_F_13.jpg,right,840.3849999995437,true,low,NA,NA,NA,NA,NA,NA,NA,false
2qeIDQQR,3ni0wfppjctpbx4ya2wphz5gism608,3x0h8uuit51pt51a1oxfej63og6swq,2qeIDQQR,2020-0188,2020-06-04,14:53:25,15:09:45,NA,incomplete,143,gender,3,1,right,A_M_02.jpg,A_F_01.jpg,C_M_13.jpg,right,852.1000000000931,true,low,NA,NA,NA,NA,NA,NA,NA,false
2qeIDQQR,3ni0wfppjctpbx4ya2wphz5gism608,3x0h8uuit51pt51a1oxfej63og6swq,2qeIDQQR,2020-0188,2020-06-04,14:53:25,15:09:45,NA,incomplete,144,gender,3,1,left,C_M_06.jpg,A_M_02.jpg,C_F_03.jpg,left,766.1849999985425,true,low,NA,NA,NA,NA,NA,NA,NA,false
2qeIDQQR,3ni0wfppjctpbx4ya2wphz5gism608,3x0h8uuit51pt51a1oxfej63og6swq,2qeIDQQR,2020-0188,2020-06-04,14:53:25,15:09:45,NA,incomplete,145,gender,3,0,left,C_M_15.jpg,A_M_02.jpg,C_F_13.jpg,left,789.6249999994179,true,low,NA,NA,NA,NA,NA,NA,NA,false
2qeIDQQR,3ni0wfppjctpbx4ya2wphz5gism608,3x0h8uuit51pt51a1oxfej63og6swq,2qeIDQQR,2020-0188,2020-06-04,14:53:25,15:09:45,NA,incomplete,146,gender,3,1,left,A_M_02.jpg,C_M_06.jpg,A_F_03.jpg,left,890.055000001681,true,low,NA,NA,NA,NA,NA,NA,NA,false
2qeIDQQR,3ni0wfppjctpbx4ya2wphz5gism608,3x0h8uuit51pt51a1oxfej63og6swq,2qeIDQQR,2020-0188,2020-06-04,14:53:25,15:09:45,NA,incomplete,147,gender,3,1,left,A_M_02.jpg,C_M_12.jpg,A_F_07.jpg,left,770.7899999986403,true,low,NA,NA,NA,NA,NA,NA,NA,false
2qeIDQQR,3ni0wfppjctpbx4ya2wphz5gism608,3x0h8uuit51pt51a1oxfej63og6swq,2qeIDQQR,2020-0188,2020-06-04,14:53:25,15:09:45,NA,incomplete,148,gender,3,1,right,C_M_12.jpg,C_F_10.jpg,A_M_05.jpg,right,769.5949999997392,true,low,NA,NA,NA,NA,NA,NA,NA,false
2qeIDQQR,3ni0wfppjctpbx4ya2wphz5gism608,3x0h8uuit51pt51a1oxfej63og6swq,2qeIDQQR,2020-0188,2020-06-04,14:53:25,15:09:45,NA,incomplete,149,gender,3,1,right,A_F_06.jpg,A_M_11.jpg,C_F_09.jpg,right,926.4999999995343,true,low,NA,NA,NA,NA,NA,NA,NA,false
2qeIDQQR,3ni0wfppjctpbx4ya2wphz5gism608,3x0h8uuit51pt51a1oxfej63og6swq,2qeIDQQR,2020-0188,2020-06-04,14:53:25,15:09:45,NA,incomplete,150,gender,3,0,right,A_M_07.jpg,A_F_01.jpg,C_M_11.jpg,right,830.4150000003865,true,low,NA,NA,NA,NA,NA,NA,NA,false
2qeIDQQR,3ni0wfppjctpbx4ya2wphz5gism608,3x0h8uuit51pt51a1oxfej63og6swq,2qeIDQQR,2020-0188,2020-06-04,14:53:25,15:09:45,NA,incomplete,151,gender,3,1,right,C_M_04.jpg,C_F_15.jpg,A_M_13.jpg,right,746.2900000009686,true,low,NA,NA,NA,NA,NA,NA,NA,false
2qeIDQQR,3ni0wfppjctpbx4ya2wphz5gism608,3x0h8uuit51pt51a1oxfej63og6swq,2qeIDQQR,2020-0188,2020-06-04,14:53:25,15:09:45,NA,incomplete,152,gender,3,0,left,C_F_13.jpg,A_F_01.jpg,C_M_10.jpg,left,713.1600000011967,true,low,NA,NA,NA,NA,NA,NA,NA,false
2qeIDQQR,3ni0wfppjctpbx4ya2wphz5gism608,3x0h8uuit51pt51a1oxfej63og6swq,2qeIDQQR,2020-0188,2020-06-04,14:53:25,15:09:45,NA,incomplete,153,gender,3,1,left,C_M_04.jpg,A_M_03.jpg,C_F_14.jpg,left,674.675000000163,true,low,NA,NA,NA,NA,NA,NA,NA,false
2qeIDQQR,3ni0wfppjctpbx4ya2wphz5gism608,3x0h8uuit51pt51a1oxfej63og6swq,2qeIDQQR,2020-0188,2020-06-04,14:53:25,15:09:45,NA,incomplete,154,gender,3,1,right,C_M_11.jpg,C_F_08.jpg,A_M_03.jpg,right,700.9350000007544,true,low,NA,NA,NA,NA,NA,NA,NA,false
2qeIDQQR,3ni0wfppjctpbx4ya2wphz5gism608,3x0h8uuit51pt51a1oxfej63og6swq,2qeIDQQR,2020-0188,2020-06-04,14:53:25,15:09:45,NA,incomplete,155,gender,3,1,right,C_M_04.jpg,C_F_06.jpg,A_M_12.jpg,right,702.8950000003679,true,low,NA,NA,NA,NA,NA,NA,NA,false
2qeIDQQR,3ni0wfppjctpbx4ya2wphz5gism608,3x0h8uuit51pt51a1oxfej63og6swq,2qeIDQQR,2020-0188,2020-06-04,14:53:25,15:09:45,NA,incomplete,156,gender,3,1,left,C_M_03.jpg,A_M_14.jpg,C_F_08.jpg,left,687.6200000005774,true,low,NA,NA,NA,NA,NA,NA,NA,false
2qeIDQQR,3ni0wfppjctpbx4ya2wphz5gism608,3x0h8uuit51pt51a1oxfej63og6swq,2qeIDQQR,2020-0188,2020-06-04,14:53:25,15:09:45,NA,incomplete,157,gender,3,1,left,A_F_13.jpg,C_F_06.jpg,A_M_04.jpg,left,761.440000000177,true,low,NA,NA,NA,NA,NA,NA,NA,false
2qeIDQQR,3ni0wfppjctpbx4ya2wphz5gism608,3x0h8uuit51pt51a1oxfej63og6swq,2qeIDQQR,2020-0188,2020-06-04,14:53:25,15:09:45,NA,incomplete,158,gender,3,1,right,A_M_01.jpg,A_F_05.jpg,C_M_11.jpg,right,696.9300000000512,true,low,NA,NA,NA,NA,NA,NA,NA,false
2qeIDQQR,3ni0wfppjctpbx4ya2wphz5gism608,3x0h8uuit51pt51a1oxfej63og6swq,2qeIDQQR,2020-0188,2020-06-04,14:53:25,15:09:45,NA,incomplete,159,gender,3,1,left,A_M_12.jpg,C_M_01.jpg,A_F_06.jpg,left,721.2700000000186,true,low,NA,NA,NA,NA,NA,NA,NA,false
2qeIDQQR,3ni0wfppjctpbx4ya2wphz5gism608,3x0h8uuit51pt51a1oxfej63og6swq,2qeIDQQR,2020-0188,2020-06-04,14:53:25,15:09:45,NA,incomplete,160,race,2,0,left,A_F_09.jpg,A_M_15.jpg,C_F_10.jpg,left,738.1000000004424,true,low,NA,NA,NA,NA,NA,NA,NA,false
2qeIDQQR,3ni0wfppjctpbx4ya2wphz5gism608,3x0h8uuit51pt51a1oxfej63og6swq,2qeIDQQR,2020-0188,2020-06-04,14:53:25,15:09:45,NA,incomplete,161,race,2,1,right,C_M_04.jpg,A_M_12.jpg,C_F_16.jpg,left,744.8800000002375,false,low,NA,NA,NA,NA,NA,NA,NA,false
2qeIDQQR,3ni0wfppjctpbx4ya2wphz5gism608,3x0h8uuit51pt51a1oxfej63og6swq,2qeIDQQR,2020-0188,2020-06-04,14:53:25,15:09:45,NA,incomplete,162,race,2,0,left,A_F_12.jpg,A_M_09.jpg,C_F_02.jpg,right,969.0250000003725,false,low,NA,NA,NA,NA,NA,NA,NA,false
2qeIDQQR,3ni0wfppjctpbx4ya2wphz5gism608,3x0h8uuit51pt51a1oxfej63og6swq,2qeIDQQR,2020-0188,2020-06-04,14:53:25,15:09:45,NA,incomplete,163,race,2,1,left,C_F_10.jpg,C_M_01.jpg,A_F_13.jpg,right,791.4700000000885,false,low,NA,NA,NA,NA,NA,NA,NA,false
2qeIDQQR,3ni0wfppjctpbx4ya2wphz5gism608,3x0h8uuit51pt51a1oxfej63og6swq,2qeIDQQR,2020-0188,2020-06-04,14:53:25,15:09:45,NA,incomplete,164,race,2,0,right,C_M_02.jpg,A_M_14.jpg,C_F_08.jpg,left,707.6349999988452,false,low,NA,NA,NA,NA,NA,NA,NA,false
2qeIDQQR,3ni0wfppjctpbx4ya2wphz5gism608,3x0h8uuit51pt51a1oxfej63og6swq,2qeIDQQR,2020-0188,2020-06-04,14:53:25,15:09:45,NA,incomplete,165,race,2,1,right,C_F_09.jpg,A_F_11.jpg,C_M_16.jpg,left,803.480000000447,false,low,NA,NA,NA,NA,NA,NA,NA,false
2qeIDQQR,3ni0wfppjctpbx4ya2wphz5gism608,3x0h8uuit51pt51a1oxfej63og6swq,2qeIDQQR,2020-0188,2020-06-04,14:53:25,15:09:45,NA,incomplete,166,race,2,1,right,A_F_01.jpg,C_F_04.jpg,A_M_05.jpg,left,705.0699999999488,false,low,NA,NA,NA,NA,NA,NA,NA,false
2qeIDQQR,3ni0wfppjctpbx4ya2wphz5gism608,3x0h8uuit51pt51a1oxfej63og6swq,2qeIDQQR,2020-0188,2020-06-04,14:53:25,15:09:45,NA,incomplete,167,race,2,1,left,A_F_03.jpg,A_M_07.jpg,C_F_12.jpg,right,634.2449999992969,false,low,NA,NA,NA,NA,NA,NA,NA,false
2qeIDQQR,3ni0wfppjctpbx4ya2wphz5gism608,3x0h8uuit51pt51a1oxfej63og6swq,2qeIDQQR,2020-0188,2020-06-04,14:53:25,15:09:45,NA,incomplete,168,race,2,0,right,C_M_07.jpg,A_M_03.jpg,C_F_08.jpg,left,774.8099999990081,false,low,NA,NA,NA,NA,NA,NA,NA,false
2qeIDQQR,3ni0wfppjctpbx4ya2wphz5gism608,3x0h8uuit51pt51a1oxfej63og6swq,2qeIDQQR,2020-0188,2020-06-04,14:53:25,15:09:45,NA,incomplete,169,race,2,1,left,A_M_14.jpg,A_F_11.jpg,C_M_02.jpg,right,796.0549999988871,false,low,NA,NA,NA,NA,NA,NA,NA,false
2qeIDQQR,3ni0wfppjctpbx4ya2wphz5gism608,3x0h8uuit51pt51a1oxfej63og6swq,2qeIDQQR,2020-0188,2020-06-04,14:53:25,15:09:45,NA,incomplete,170,race,2,0,left,C_M_04.jpg,C_F_09.jpg,A_M_01.jpg,right,785.9750000006752,false,low,NA,NA,NA,NA,NA,NA,NA,false
2qeIDQQR,3ni0wfppjctpbx4ya2wphz5gism608,3x0h8uuit51pt51a1oxfej63og6swq,2qeIDQQR,2020-0188,2020-06-04,14:53:25,15:09:45,NA,incomplete,171,race,2,1,left,A_F_07.jpg,A_M_08.jpg,C_F_01.jpg,right,991.6850000008708,false,low,NA,NA,NA,NA,NA,NA,NA,false
2qeIDQQR,3ni0wfppjctpbx4ya2wphz5gism608,3x0h8uuit51pt51a1oxfej63og6swq,2qeIDQQR,2020-0188,2020-06-04,14:53:25,15:09:45,NA,incomplete,172,race,2,0,right,A_F_16.jpg,C_F_08.jpg,A_M_13.jpg,left,699.6400000007125,false,low,NA,NA,NA,NA,NA,NA,NA,false
2qeIDQQR,3ni0wfppjctpbx4ya2wphz5gism608,3x0h8uuit51pt51a1oxfej63og6swq,2qeIDQQR,2020-0188,2020-06-04,14:53:25,15:09:45,NA,incomplete,173,race,2,1,right,A_M_08.jpg,C_M_05.jpg,A_F_15.jpg,left,758.0199999993201,false,low,NA,NA,NA,NA,NA,NA,NA,false
2qeIDQQR,3ni0wfppjctpbx4ya2wphz5gism608,3x0h8uuit51pt51a1oxfej63og6swq,2qeIDQQR,2020-0188,2020-06-04,14:53:25,15:09:45,NA,incomplete,174,race,2,1,left,C_F_15.jpg,C_M_02.jpg,A_F_04.jpg,right,660.450000001234,false,low,NA,NA,NA,NA,NA,NA,NA,false
2qeIDQQR,3ni0wfppjctpbx4ya2wphz5gism608,3x0h8uuit51pt51a1oxfej63og6swq,2qeIDQQR,2020-0188,2020-06-04,14:53:25,15:09:45,NA,incomplete,175,race,2,1,right,A_F_04.jpg,C_F_09.jpg,A_M_16.jpg,left,647.3000000005122,false,low,NA,NA,NA,NA,NA,NA,NA,false
2qeIDQQR,3ni0wfppjctpbx4ya2wphz5gism608,3x0h8uuit51pt51a1oxfej63og6swq,2qeIDQQR,2020-0188,2020-06-04,14:53:25,15:09:45,NA,incomplete,176,race,2,1,left,A_M_11.jpg,A_F_01.jpg,C_M_06.jpg,left,827.2550000001211,true,low,NA,NA,NA,NA,NA,NA,NA,false
2qeIDQQR,3ni0wfppjctpbx4ya2wphz5gism608,3x0h8uuit51pt51a1oxfej63og6swq,2qeIDQQR,2020-0188,2020-06-04,14:53:25,15:09:45,NA,incomplete,177,race,2,1,right,A_M_15.jpg,C_M_16.jpg,A_F_02.jpg,right,935.1150000002235,true,low,NA,NA,NA,NA,NA,NA,NA,false
2qeIDQQR,3ni0wfppjctpbx4ya2wphz5gism608,3x0h8uuit51pt51a1oxfej63og6swq,2qeIDQQR,2020-0188,2020-06-04,14:53:25,15:09:45,NA,incomplete,178,race,2,0,left,C_F_13.jpg,C_M_14.jpg,A_F_15.jpg,left,838.8400000004331,true,low,NA,NA,NA,NA,NA,NA,NA,false
2qeIDQQR,3ni0wfppjctpbx4ya2wphz5gism608,3x0h8uuit51pt51a1oxfej63og6swq,2qeIDQQR,2020-0188,2020-06-04,14:53:25,15:09:45,NA,incomplete,179,race,2,1,right,C_F_05.jpg,A_F_08.jpg,C_M_15.jpg,right,1024.625,true,low,NA,NA,NA,NA,NA,NA,NA,false
2qeIDQQR,3ni0wfppjctpbx4ya2wphz5gism608,3x0h8uuit51pt51a1oxfej63og6swq,2qeIDQQR,2020-0188,2020-06-04,14:53:25,15:09:45,NA,incomplete,180,gender,3,1,left,A_F_07.jpg,C_F_05.jpg,A_M_01.jpg,left,948.5050000003539,true,low,NA,NA,NA,NA,NA,NA,NA,false
2qeIDQQR,3ni0wfppjctpbx4ya2wphz5gism608,3x0h8uuit51pt51a1oxfej63og6swq,2qeIDQQR,2020-0188,2020-06-04,14:53:25,15:09:45,NA,incomplete,181,gender,3,1,right,C_M_04.jpg,C_F_14.jpg,A_M_15.jpg,right,979.3850000005914,true,low,NA,NA,NA,NA,NA,NA,NA,false
2qeIDQQR,3ni0wfppjctpbx4ya2wphz5gism608,3x0h8uuit51pt51a1oxfej63og6swq,2qeIDQQR,2020-0188,2020-06-04,14:53:25,15:09:45,NA,incomplete,182,gender,3,1,right,A_M_11.jpg,A_F_15.jpg,C_M_16.jpg,right,784.2049999999581,true,low,NA,NA,NA,NA,NA,NA,NA,false
2qeIDQQR,3ni0wfppjctpbx4ya2wphz5gism608,3x0h8uuit51pt51a1oxfej63og6swq,2qeIDQQR,2020-0188,2020-06-04,14:53:25,15:09:45,NA,incomplete,183,gender,3,1,right,A_F_06.jpg,A_M_09.jpg,C_F_01.jpg,right,918.8000000013271,true,low,NA,NA,NA,NA,NA,NA,NA,false
2qeIDQQR,3ni0wfppjctpbx4ya2wphz5gism608,3x0h8uuit51pt51a1oxfej63og6swq,2qeIDQQR,2020-0188,2020-06-04,14:53:25,15:09:45,NA,incomplete,184,gender,3,1,right,A_M_05.jpg,A_F_10.jpg,C_M_08.jpg,right,774.0000000012806,true,low,NA,NA,NA,NA,NA,NA,NA,false
2qeIDQQR,3ni0wfppjctpbx4ya2wphz5gism608,3x0h8uuit51pt51a1oxfej63og6swq,2qeIDQQR,2020-0188,2020-06-04,14:53:25,15:09:45,NA,incomplete,185,gender,3,1,left,A_M_08.jpg,C_M_02.jpg,A_F_13.jpg,left,947.7999999999302,true,low,NA,NA,NA,NA,NA,NA,NA,false
2qeIDQQR,3ni0wfppjctpbx4ya2wphz5gism608,3x0h8uuit51pt51a1oxfej63og6swq,2qeIDQQR,2020-0188,2020-06-04,14:53:25,15:09:45,NA,incomplete,186,gender,3,1,right,C_F_14.jpg,C_M_07.jpg,A_F_11.jpg,right,858.7000000006519,true,low,NA,NA,NA,NA,NA,NA,NA,false
2qeIDQQR,3ni0wfppjctpbx4ya2wphz5gism608,3x0h8uuit51pt51a1oxfej63og6swq,2qeIDQQR,2020-0188,2020-06-04,14:53:25,15:09:45,NA,incomplete,187,gender,3,1,right,C_M_13.jpg,C_F_16.jpg,A_M_12.jpg,right,909.724999999511,true,low,NA,NA,NA,NA,NA,NA,NA,false
2qeIDQQR,3ni0wfppjctpbx4ya2wphz5gism608,3x0h8uuit51pt51a1oxfej63og6swq,2qeIDQQR,2020-0188,2020-06-04,14:53:25,15:09:45,NA,incomplete,188,gender,3,1,left,C_F_14.jpg,A_F_05.jpg,C_M_08.jpg,left,749.8250000007683,true,low,NA,NA,NA,NA,NA,NA,NA,false
2qeIDQQR,3ni0wfppjctpbx4ya2wphz5gism608,3x0h8uuit51pt51a1oxfej63og6swq,2qeIDQQR,2020-0188,2020-06-04,14:53:25,15:09:45,NA,incomplete,189,gender,3,1,left,A_F_08.jpg,C_F_15.jpg,A_M_11.jpg,left,1013.2450000001118,true,low,NA,NA,NA,NA,NA,NA,NA,false
2qeIDQQR,3ni0wfppjctpbx4ya2wphz5gism608,3x0h8uuit51pt51a1oxfej63og6swq,2qeIDQQR,2020-0188,2020-06-04,14:53:25,15:09:45,NA,incomplete,190,gender,3,1,left,A_M_06.jpg,C_M_07.jpg,A_F_15.jpg,left,729.1549999990966,true,low,NA,NA,NA,NA,NA,NA,NA,false
2qeIDQQR,3ni0wfppjctpbx4ya2wphz5gism608,3x0h8uuit51pt51a1oxfej63og6swq,2qeIDQQR,2020-0188,2020-06-04,14:53:25,15:09:45,NA,incomplete,191,gender,3,0,left,C_M_08.jpg,A_M_16.jpg,C_F_10.jpg,left,721.0199999990873,true,low,NA,NA,NA,NA,NA,NA,NA,false
2qeIDQQR,3ni0wfppjctpbx4ya2wphz5gism608,3x0h8uuit51pt51a1oxfej63og6swq,2qeIDQQR,2020-0188,2020-06-04,14:53:25,15:09:45,NA,incomplete,192,gender,3,1,left,A_F_01.jpg,C_F_15.jpg,A_M_16.jpg,left,608.9299999984214,true,low,NA,NA,NA,NA,NA,NA,NA,false
2qeIDQQR,3ni0wfppjctpbx4ya2wphz5gism608,3x0h8uuit51pt51a1oxfej63og6swq,2qeIDQQR,2020-0188,2020-06-04,14:53:25,15:09:45,NA,incomplete,193,gender,3,1,right,A_M_11.jpg,A_F_10.jpg,C_M_12.jpg,right,582.5949999998556,true,low,NA,NA,NA,NA,NA,NA,NA,false
2qeIDQQR,3ni0wfppjctpbx4ya2wphz5gism608,3x0h8uuit51pt51a1oxfej63og6swq,2qeIDQQR,2020-0188,2020-06-04,14:53:25,15:09:45,NA,incomplete,194,gender,3,1,right,C_F_15.jpg,C_M_01.jpg,A_F_08.jpg,right,820.6450000016484,true,low,NA,NA,NA,NA,NA,NA,NA,false
2qeIDQQR,3ni0wfppjctpbx4ya2wphz5gism608,3x0h8uuit51pt51a1oxfej63og6swq,2qeIDQQR,2020-0188,2020-06-04,14:53:25,15:09:45,NA,incomplete,195,gender,3,1,right,A_M_07.jpg,A_F_04.jpg,C_M_16.jpg,right,776.640000000014,true,low,NA,NA,NA,NA,NA,NA,NA,false
2qeIDQQR,3ni0wfppjctpbx4ya2wphz5gism608,3x0h8uuit51pt51a1oxfej63og6swq,2qeIDQQR,2020-0188,2020-06-04,14:53:25,15:09:45,NA,incomplete,196,gender,3,1,right,C_F_01.jpg,C_M_06.jpg,A_F_14.jpg,right,998.410000000149,true,low,NA,NA,NA,NA,NA,NA,NA,false
2qeIDQQR,3ni0wfppjctpbx4ya2wphz5gism608,3x0h8uuit51pt51a1oxfej63og6swq,2qeIDQQR,2020-0188,2020-06-04,14:53:25,15:09:45,NA,incomplete,197,gender,3,0,left,C_F_04.jpg,A_F_01.jpg,C_M_08.jpg,left,787.2049999986775,true,low,NA,NA,NA,NA,NA,NA,NA,false
2qeIDQQR,3ni0wfppjctpbx4ya2wphz5gism608,3x0h8uuit51pt51a1oxfej63og6swq,2qeIDQQR,2020-0188,2020-06-04,14:53:25,15:09:45,NA,incomplete,198,gender,3,1,right,C_F_07.jpg,C_M_11.jpg,A_F_14.jpg,right,800.8850000005914,true,low,NA,NA,NA,NA,NA,NA,NA,false
2qeIDQQR,3ni0wfppjctpbx4ya2wphz5gism608,3x0h8uuit51pt51a1oxfej63og6swq,2qeIDQQR,2020-0188,2020-06-04,14:53:25,15:09:45,NA,incomplete,199,gender,3,1,right,C_M_02.jpg,C_F_06.jpg,A_M_11.jpg,right,677.9949999999953,true,low,NA,NA,NA,NA,NA,NA,NA,false
2qeIDQQR,3ni0wfppjctpbx4ya2wphz5gism608,3x0h8uuit51pt51a1oxfej63og6swq,2qeIDQQR,2020-0188,2020-06-04,14:53:25,15:09:45,NA,incomplete,200,race,2,1,left,A_M_16.jpg,A_F_09.jpg,C_M_03.jpg,right,823.890000001411,false,low,NA,NA,NA,NA,NA,NA,NA,false
2qeIDQQR,3ni0wfppjctpbx4ya2wphz5gism608,3x0h8uuit51pt51a1oxfej63og6swq,2qeIDQQR,2020-0188,2020-06-04,14:53:25,15:09:45,NA,incomplete,201,race,2,1,right,C_M_06.jpg,A_M_01.jpg,C_F_12.jpg,left,827.8000000009779,false,low,NA,NA,NA,NA,NA,NA,NA,false
2qeIDQQR,3ni0wfppjctpbx4ya2wphz5gism608,3x0h8uuit51pt51a1oxfej63og6swq,2qeIDQQR,2020-0188,2020-06-04,14:53:25,15:09:45,NA,incomplete,202,race,2,1,left,C_F_11.jpg,C_M_05.jpg,A_F_12.jpg,right,671.6349999988452,false,low,NA,NA,NA,NA,NA,NA,NA,false
2qeIDQQR,3ni0wfppjctpbx4ya2wphz5gism608,3x0h8uuit51pt51a1oxfej63og6swq,2qeIDQQR,2020-0188,2020-06-04,14:53:25,15:09:45,NA,incomplete,203,race,2,1,right,C_F_12.jpg,A_F_10.jpg,C_M_11.jpg,right,778.2600000009406,true,low,NA,NA,NA,NA,NA,NA,NA,false
2qeIDQQR,3ni0wfppjctpbx4ya2wphz5gism608,3x0h8uuit51pt51a1oxfej63og6swq,2qeIDQQR,2020-0188,2020-06-04,14:53:25,15:09:45,NA,incomplete,204,race,2,0,left,C_M_15.jpg,C_F_10.jpg,A_M_13.jpg,right,959.3800000002375,false,low,NA,NA,NA,NA,NA,NA,NA,false
2qeIDQQR,3ni0wfppjctpbx4ya2wphz5gism608,3x0h8uuit51pt51a1oxfej63og6swq,2qeIDQQR,2020-0188,2020-06-04,14:53:25,15:09:45,NA,incomplete,205,race,2,1,left,A_M_14.jpg,A_F_01.jpg,C_M_11.jpg,right,821.2500000009313,false,low,NA,NA,NA,NA,NA,NA,NA,false
2qeIDQQR,3ni0wfppjctpbx4ya2wphz5gism608,3x0h8uuit51pt51a1oxfej63og6swq,2qeIDQQR,2020-0188,2020-06-04,14:53:25,15:09:45,NA,incomplete,206,race,2,1,right,A_M_04.jpg,C_M_09.jpg,A_F_11.jpg,left,953.1150000002235,false,low,NA,NA,NA,NA,NA,NA,NA,false
2qeIDQQR,3ni0wfppjctpbx4ya2wphz5gism608,3x0h8uuit51pt51a1oxfej63og6swq,2qeIDQQR,2020-0188,2020-06-04,14:53:25,15:09:45,NA,incomplete,207,race,2,1,right,A_M_01.jpg,C_M_14.jpg,A_F_05.jpg,left,984.0649999986636,false,low,NA,NA,NA,NA,NA,NA,NA,false
2qeIDQQR,3ni0wfppjctpbx4ya2wphz5gism608,3x0h8uuit51pt51a1oxfej63og6swq,2qeIDQQR,2020-0188,2020-06-04,14:53:25,15:09:45,NA,incomplete,208,race,2,1,left,A_M_11.jpg,A_F_07.jpg,C_M_12.jpg,left,1094.5400000000373,true,low,NA,NA,NA,NA,NA,NA,NA,false
2qeIDQQR,3ni0wfppjctpbx4ya2wphz5gism608,3x0h8uuit51pt51a1oxfej63og6swq,2qeIDQQR,2020-0188,2020-06-04,14:53:25,15:09:45,NA,incomplete,209,race,2,1,left,C_F_02.jpg,C_M_09.jpg,A_F_15.jpg,left,1165.7050000012387,true,low,NA,NA,NA,NA,NA,NA,NA,false
2qeIDQQR,3ni0wfppjctpbx4ya2wphz5gism608,3x0h8uuit51pt51a1oxfej63og6swq,2qeIDQQR,2020-0188,2020-06-04,14:53:25,15:09:45,NA,incomplete,210,race,2,1,left,C_M_15.jpg,C_F_14.jpg,A_M_12.jpg,left,906.3950000000186,true,low,NA,NA,NA,NA,NA,NA,NA,false
2qeIDQQR,3ni0wfppjctpbx4ya2wphz5gism608,3x0h8uuit51pt51a1oxfej63og6swq,2qeIDQQR,2020-0188,2020-06-04,14:53:25,15:09:45,NA,incomplete,211,race,2,1,right,A_F_13.jpg,C_F_01.jpg,A_M_16.jpg,right,1050.525000000489,true,low,NA,NA,NA,NA,NA,NA,NA,false
2qeIDQQR,3ni0wfppjctpbx4ya2wphz5gism608,3x0h8uuit51pt51a1oxfej63og6swq,2qeIDQQR,2020-0188,2020-06-04,14:53:25,15:09:45,NA,incomplete,212,race,2,1,left,A_M_07.jpg,A_F_16.jpg,C_M_02.jpg,left,877.234999999986,true,low,NA,NA,NA,NA,NA,NA,NA,false
2qeIDQQR,3ni0wfppjctpbx4ya2wphz5gism608,3x0h8uuit51pt51a1oxfej63og6swq,2qeIDQQR,2020-0188,2020-06-04,14:53:25,15:09:45,NA,incomplete,213,race,2,1,right,C_F_08.jpg,A_F_02.jpg,C_M_12.jpg,left,1029.329999999376,false,low,NA,NA,NA,NA,NA,NA,NA,false
2qeIDQQR,3ni0wfppjctpbx4ya2wphz5gism608,3x0h8uuit51pt51a1oxfej63og6swq,2qeIDQQR,2020-0188,2020-06-04,14:53:25,15:09:45,NA,incomplete,214,race,2,0,right,C_M_01.jpg,A_M_08.jpg,C_F_10.jpg,right,1145.970000001369,true,low,NA,NA,NA,NA,NA,NA,NA,false
2qeIDQQR,3ni0wfppjctpbx4ya2wphz5gism608,3x0h8uuit51pt51a1oxfej63og6swq,2qeIDQQR,2020-0188,2020-06-04,14:53:25,15:09:45,NA,incomplete,215,race,2,1,left,A_M_15.jpg,A_F_02.jpg,C_M_16.jpg,left,959.9800000014948,true,low,NA,NA,NA,NA,NA,NA,NA,false
2qeIDQQR,3ni0wfppjctpbx4ya2wphz5gism608,3x0h8uuit51pt51a1oxfej63og6swq,2qeIDQQR,2020-0188,2020-06-04,14:53:25,15:09:45,NA,incomplete,216,race,2,1,right,A_F_09.jpg,C_F_03.jpg,A_M_05.jpg,right,989.7399999990594,true,low,NA,NA,NA,NA,NA,NA,NA,false
2qeIDQQR,3ni0wfppjctpbx4ya2wphz5gism608,3x0h8uuit51pt51a1oxfej63og6swq,2qeIDQQR,2020-0188,2020-06-04,14:53:25,15:09:45,NA,incomplete,217,race,2,1,right,A_M_09.jpg,C_M_16.jpg,A_F_02.jpg,right,1107.2850000000326,true,low,NA,NA,NA,NA,NA,NA,NA,false
2qeIDQQR,3ni0wfppjctpbx4ya2wphz5gism608,3x0h8uuit51pt51a1oxfej63og6swq,2qeIDQQR,2020-0188,2020-06-04,14:53:25,15:09:45,NA,incomplete,218,race,2,1,right,A_F_06.jpg,C_F_13.jpg,A_M_02.jpg,right,969.7100000011269,true,low,NA,NA,NA,NA,NA,NA,NA,false
2qeIDQQR,3ni0wfppjctpbx4ya2wphz5gism608,3x0h8uuit51pt51a1oxfej63og6swq,2qeIDQQR,2020-0188,2020-06-04,14:53:25,15:09:45,NA,incomplete,219,race,2,1,left,A_F_09.jpg,A_M_10.jpg,C_F_12.jpg,left,935.9199999999255,true,low,NA,NA,NA,NA,NA,NA,NA,false
2qeIDQQR,3ni0wfppjctpbx4ya2wphz5gism608,3x0h8uuit51pt51a1oxfej63og6swq,2qeIDQQR,2020-0188,2020-06-04,14:53:25,15:09:45,NA,incomplete,220,gender,3,0,left,A_F_14.jpg,C_F_12.jpg,A_M_05.jpg,right,943.1850000000559,false,low,NA,NA,NA,NA,NA,NA,NA,false
2qeIDQQR,3ni0wfppjctpbx4ya2wphz5gism608,3x0h8uuit51pt51a1oxfej63og6swq,2qeIDQQR,2020-0188,2020-06-04,14:53:25,15:09:45,NA,incomplete,221,gender,3,1,right,A_M_12.jpg,A_F_04.jpg,C_M_09.jpg,left,869.9200000009732,false,low,NA,NA,NA,NA,NA,NA,NA,false
2qeIDQQR,3ni0wfppjctpbx4ya2wphz5gism608,3x0h8uuit51pt51a1oxfej63og6swq,2qeIDQQR,2020-0188,2020-06-04,14:53:25,15:09:45,NA,incomplete,222,gender,3,0,right,A_M_05.jpg,A_F_08.jpg,C_M_11.jpg,left,968.56000000122,false,low,NA,NA,NA,NA,NA,NA,NA,false
2qeIDQQR,3ni0wfppjctpbx4ya2wphz5gism608,3x0h8uuit51pt51a1oxfej63og6swq,2qeIDQQR,2020-0188,2020-06-04,14:53:25,15:09:45,NA,incomplete,223,gender,3,1,right,A_M_04.jpg,A_F_09.jpg,C_M_08.jpg,left,1005.7699999997858,false,low,NA,NA,NA,NA,NA,NA,NA,false
2qeIDQQR,3ni0wfppjctpbx4ya2wphz5gism608,3x0h8uuit51pt51a1oxfej63og6swq,2qeIDQQR,2020-0188,2020-06-04,14:53:25,15:09:45,NA,incomplete,224,gender,3,1,left,C_F_16.jpg,A_F_11.jpg,C_M_13.jpg,right,777.2499999991851,false,low,NA,NA,NA,NA,NA,NA,NA,false
2qeIDQQR,3ni0wfppjctpbx4ya2wphz5gism608,3x0h8uuit51pt51a1oxfej63og6swq,2qeIDQQR,2020-0188,2020-06-04,14:53:25,15:09:45,NA,incomplete,225,gender,3,1,right,C_F_10.jpg,C_M_14.jpg,A_F_02.jpg,left,991.4200000002747,false,low,NA,NA,NA,NA,NA,NA,NA,false
2qeIDQQR,3ni0wfppjctpbx4ya2wphz5gism608,3x0h8uuit51pt51a1oxfej63og6swq,2qeIDQQR,2020-0188,2020-06-04,14:53:25,15:09:45,NA,incomplete,226,gender,3,1,left,A_F_10.jpg,C_F_13.jpg,A_M_09.jpg,left,798.9899999992922,true,low,NA,NA,NA,NA,NA,NA,NA,false
2qeIDQQR,3ni0wfppjctpbx4ya2wphz5gism608,3x0h8uuit51pt51a1oxfej63og6swq,2qeIDQQR,2020-0188,2020-06-04,14:53:25,15:09:45,NA,incomplete,227,gender,3,1,right,A_M_03.jpg,A_F_07.jpg,C_M_15.jpg,right,953.9199999999255,true,low,NA,NA,NA,NA,NA,NA,NA,false
2qeIDQQR,3ni0wfppjctpbx4ya2wphz5gism608,3x0h8uuit51pt51a1oxfej63og6swq,2qeIDQQR,2020-0188,2020-06-04,14:53:25,15:09:45,NA,incomplete,228,gender,3,1,left,C_F_02.jpg,A_F_10.jpg,C_M_12.jpg,left,1079.1099999988219,true,low,NA,NA,NA,NA,NA,NA,NA,false
2qeIDQQR,3ni0wfppjctpbx4ya2wphz5gism608,3x0h8uuit51pt51a1oxfej63og6swq,2qeIDQQR,2020-0188,2020-06-04,14:53:25,15:09:45,NA,incomplete,229,gender,3,1,right,C_M_01.jpg,C_F_05.jpg,A_M_11.jpg,right,887.8800000002375,true,low,NA,NA,NA,NA,NA,NA,NA,false
2qeIDQQR,3ni0wfppjctpbx4ya2wphz5gism608,3x0h8uuit51pt51a1oxfej63og6swq,2qeIDQQR,2020-0188,2020-06-04,14:53:25,15:09:45,NA,incomplete,230,gender,3,0,left,A_F_16.jpg,C_F_09.jpg,A_M_02.jpg,left,1136.6550000002608,true,low,NA,NA,NA,NA,NA,NA,NA,false
2qeIDQQR,3ni0wfppjctpbx4ya2wphz5gism608,3x0h8uuit51pt51a1oxfej63og6swq,2qeIDQQR,2020-0188,2020-06-04,14:53:25,15:09:45,NA,incomplete,231,gender,3,1,left,A_F_07.jpg,C_F_03.jpg,A_M_11.jpg,left,903.6049999995157,true,low,NA,NA,NA,NA,NA,NA,NA,false
2qeIDQQR,3ni0wfppjctpbx4ya2wphz5gism608,3x0h8uuit51pt51a1oxfej63og6swq,2qeIDQQR,2020-0188,2020-06-04,14:53:25,15:09:45,NA,incomplete,232,gender,3,1,left,A_F_14.jpg,C_F_04.jpg,A_M_07.jpg,left,977.3000000005122,true,low,NA,NA,NA,NA,NA,NA,NA,false
2qeIDQQR,3ni0wfppjctpbx4ya2wphz5gism608,3x0h8uuit51pt51a1oxfej63og6swq,2qeIDQQR,2020-0188,2020-06-04,14:53:25,15:09:45,NA,incomplete,233,gender,3,0,left,A_F_10.jpg,C_F_11.jpg,A_M_04.jpg,left,789.275000001071,true,low,NA,NA,NA,NA,NA,NA,NA,false
2qeIDQQR,3ni0wfppjctpbx4ya2wphz5gism608,3x0h8uuit51pt51a1oxfej63og6swq,2qeIDQQR,2020-0188,2020-06-04,14:53:25,15:09:45,NA,incomplete,234,gender,3,1,right,C_M_07.jpg,C_F_16.jpg,A_M_02.jpg,right,906.1600000004983,true,low,NA,NA,NA,NA,NA,NA,NA,false
2qeIDQQR,3ni0wfppjctpbx4ya2wphz5gism608,3x0h8uuit51pt51a1oxfej63og6swq,2qeIDQQR,2020-0188,2020-06-04,14:53:25,15:09:45,NA,incomplete,235,gender,3,1,right,A_M_10.jpg,A_F_05.jpg,C_M_09.jpg,right,701.7849999993341,true,low,NA,NA,NA,NA,NA,NA,NA,false
2qeIDQQR,3ni0wfppjctpbx4ya2wphz5gism608,3x0h8uuit51pt51a1oxfej63og6swq,2qeIDQQR,2020-0188,2020-06-04,14:53:25,15:09:45,NA,incomplete,236,gender,3,1,right,C_M_11.jpg,C_F_13.jpg,A_M_15.jpg,right,787.8149999997113,true,low,NA,NA,NA,NA,NA,NA,NA,false
2qeIDQQR,3ni0wfppjctpbx4ya2wphz5gism608,3x0h8uuit51pt51a1oxfej63og6swq,2qeIDQQR,2020-0188,2020-06-04,14:53:25,15:09:45,NA,incomplete,237,gender,3,1,left,A_M_16.jpg,C_M_10.jpg,A_F_06.jpg,left,786.7150000002002,true,low,NA,NA,NA,NA,NA,NA,NA,false
2qeIDQQR,3ni0wfppjctpbx4ya2wphz5gism608,3x0h8uuit51pt51a1oxfej63og6swq,2qeIDQQR,2020-0188,2020-06-04,14:53:25,15:09:45,NA,incomplete,238,gender,3,0,left,C_M_02.jpg,A_M_03.jpg,C_F_06.jpg,left,735.6650000001537,true,low,NA,NA,NA,NA,NA,NA,NA,false
2qeIDQQR,3ni0wfppjctpbx4ya2wphz5gism608,3x0h8uuit51pt51a1oxfej63og6swq,2qeIDQQR,2020-0188,2020-06-04,14:53:25,15:09:45,NA,incomplete,239,gender,3,1,right,A_M_16.jpg,A_F_07.jpg,C_M_08.jpg,right,815.4949999989476,true,low,NA,NA,NA,NA,NA,NA,NA,false
2qeIDQQR,3ni0wfppjctpbx4ya2wphz5gism608,3x0h8uuit51pt51a1oxfej63og6swq,2qeIDQQR,2020-0188,2020-06-04,14:53:25,15:09:45,NA,NA,instruction example,number,NA,NA,NA,Green_Plus_Stripes_1.jpg,Blue_Star_Grid_1.jpg,Green_Triangle_Dots_3.jpg,NA,NA,NA,NA,NA,NA,NA,NA,NA,NA,NA,undefined
2qeIDQQR,3ni0wfppjctpbx4ya2wphz5gism608,3x0h8uuit51pt51a1oxfej63og6swq,2qeIDQQR,2020-0188,2020-06-04,14:53:25,15:09:45,NA,NA,instruction example,number,NA,NA,NA,Purple_Circle_Stripes_1.jpg,Purple_Star_Grid_2.jpg,Blue_Plus_Dots_1.jpg,NA,NA,NA,NA,NA,NA,NA,NA,NA,NA,NA,undefined
2qeIDQQR,3ni0wfppjctpbx4ya2wphz5gism608,3x0h8uuit51pt51a1oxfej63og6swq,2qeIDQQR,2020-0188,2020-06-04,14:53:25,15:09:45,NA,NA,instruction example,number,NA,NA,NA,A_F_04.jpg,A_M_16.jpg,C_F_02.jpg,NA,NA,NA,NA,NA,NA,NA,NA,NA,NA,NA,undefined
2qeIDQQR,3ni0wfppjctpbx4ya2wphz5gism608,3x0h8uuit51pt51a1oxfej63og6swq,2qeIDQQR,2020-0188,2020-06-04,14:53:25,15:09:45,NA,NA,instruction example,number,NA,NA,NA,A_M_11.jpg,C_M_01.jpg,A_F_03.jpg,NA,NA,NA,NA,NA,NA,NA,NA,NA,NA,NA,undefined
2qeIDQQR,3ni0wfppjctpbx4ya2wphz5gism608,3x0h8uuit51pt51a1oxfej63og6swq,2qeIDQQR,2020-0188,2020-06-04,14:53:25,15:09:45,952526.8749999995,981422.0099999984,NA,NA,NA,NA,NA,NA,NA,NA,NA,NA,NA,NA,31,White/Caucasian,Male,Caucasian,no,yes,no,undefined
