workerId,hitId,assignmentId,subject,studyid,exp_date,exp_start,exp_end,time_start,time_end,trial,type,sequence,reward_validity,answer,image_top,image_left,image_right,response,response_time,response_acc,volatility,age,race,gender,ethnicity,color,vision,neuro,practice
dAlXHsDS,3headtgn3s5yqh3y5nncdnm28bcvrm,3x3or7wpz3drzra2jck8ohpmecq8l2,dAlXHsDS,2020-0188,2020-06-04,10:36:52,10:56:47,NA,incomplete,0,shape,0,1,right,Red_Star_Chess_3.jpg,Red_Triangle_Dots_1.jpg,Purple_Star_Stripes_4.jpg,right,1728.3749999769498,true,NA,NA,NA,NA,NA,NA,NA,NA,true
dAlXHsDS,3headtgn3s5yqh3y5nncdnm28bcvrm,3x3or7wpz3drzra2jck8ohpmecq8l2,dAlXHsDS,2020-0188,2020-06-04,10:36:52,10:56:47,NA,incomplete,1,shape,0,1,left,Blue_Triangle_Stripes_4.jpg,Green_Triangle_Grid_2.jpg,Blue_Star_Dots_3.jpg,left,1109.8100000235718,true,NA,NA,NA,NA,NA,NA,NA,NA,true
dAlXHsDS,3headtgn3s5yqh3y5nncdnm28bcvrm,3x3or7wpz3drzra2jck8ohpmecq8l2,dAlXHsDS,2020-0188,2020-06-04,10:36:52,10:56:47,NA,incomplete,2,shape,0,1,left,Green_Circle_Grid_3.jpg,Red_Circle_Chess_2.jpg,Green_Triangle_Stripes_1.jpg,left,1388.4949999919627,true,NA,NA,NA,NA,NA,NA,NA,NA,true
dAlXHsDS,3headtgn3s5yqh3y5nncdnm28bcvrm,3x3or7wpz3drzra2jck8ohpmecq8l2,dAlXHsDS,2020-0188,2020-06-04,10:36:52,10:56:47,NA,incomplete,3,shape,0,1,left,Purple_Star_Stripes_4.jpg,Red_Star_Grid_1.jpg,Purple_Circle_Chess_3.jpg,left,1710.770000005141,true,NA,NA,NA,NA,NA,NA,NA,NA,true
dAlXHsDS,3headtgn3s5yqh3y5nncdnm28bcvrm,3x3or7wpz3drzra2jck8ohpmecq8l2,dAlXHsDS,2020-0188,2020-06-04,10:36:52,10:56:47,NA,incomplete,4,shape,0,0,right,Blue_Plus_Grid_2.jpg,Blue_Star_Dots_1.jpg,Green_Plus_Stripes_4.jpg,right,1235.7849999971222,true,NA,NA,NA,NA,NA,NA,NA,NA,true
dAlXHsDS,3headtgn3s5yqh3y5nncdnm28bcvrm,3x3or7wpz3drzra2jck8ohpmecq8l2,dAlXHsDS,2020-0188,2020-06-04,10:36:52,10:56:47,NA,incomplete,5,shape,0,1,right,Blue_Plus_Chess_2.jpg,Blue_Triangle_Stripes_3.jpg,Purple_Plus_Dots_1.jpg,right,1176.6749999951571,true,NA,NA,NA,NA,NA,NA,NA,NA,true
dAlXHsDS,3headtgn3s5yqh3y5nncdnm28bcvrm,3x3or7wpz3drzra2jck8ohpmecq8l2,dAlXHsDS,2020-0188,2020-06-04,10:36:52,10:56:47,NA,incomplete,6,shape,0,1,right,Red_Star_Grid_2.jpg,Red_Circle_Stripes_3.jpg,Blue_Star_Chess_1.jpg,right,1165.6399999919813,true,NA,NA,NA,NA,NA,NA,NA,NA,true
dAlXHsDS,3headtgn3s5yqh3y5nncdnm28bcvrm,3x3or7wpz3drzra2jck8ohpmecq8l2,dAlXHsDS,2020-0188,2020-06-04,10:36:52,10:56:47,NA,incomplete,7,shape,0,0,left,Blue_Star_Grid_4.jpg,Green_Star_Chess_1.jpg,Blue_Triangle_Stripes_2.jpg,left,1172.0799999893643,true,NA,NA,NA,NA,NA,NA,NA,NA,true
dAlXHsDS,3headtgn3s5yqh3y5nncdnm28bcvrm,3x3or7wpz3drzra2jck8ohpmecq8l2,dAlXHsDS,2020-0188,2020-06-04,10:36:52,10:56:47,NA,incomplete,8,shape,0,1,left,Green_Plus_Dots_3.jpg,Red_Plus_Grid_2.jpg,Green_Triangle_Stripes_4.jpg,left,1444.5549999945797,true,NA,NA,NA,NA,NA,NA,NA,NA,true
dAlXHsDS,3headtgn3s5yqh3y5nncdnm28bcvrm,3x3or7wpz3drzra2jck8ohpmecq8l2,dAlXHsDS,2020-0188,2020-06-04,10:36:52,10:56:47,NA,incomplete,9,shape,0,1,left,Blue_Circle_Grid_1.jpg,Green_Circle_Chess_2.jpg,Blue_Plus_Dots_4.jpg,left,931.1699999962002,true,NA,NA,NA,NA,NA,NA,NA,NA,true
dAlXHsDS,3headtgn3s5yqh3y5nncdnm28bcvrm,3x3or7wpz3drzra2jck8ohpmecq8l2,dAlXHsDS,2020-0188,2020-06-04,10:36:52,10:56:47,NA,incomplete,10,shape,0,1,right,Blue_Plus_Dots_2.jpg,Blue_Triangle_Grid_3.jpg,Green_Plus_Chess_4.jpg,right,1385.8149999869056,true,NA,NA,NA,NA,NA,NA,NA,NA,true
dAlXHsDS,3headtgn3s5yqh3y5nncdnm28bcvrm,3x3or7wpz3drzra2jck8ohpmecq8l2,dAlXHsDS,2020-0188,2020-06-04,10:36:52,10:56:47,NA,incomplete,11,shape,0,1,left,Purple_Plus_Dots_4.jpg,Blue_Plus_Chess_1.jpg,Purple_Circle_Stripes_3.jpg,left,1090.954999992391,true,NA,NA,NA,NA,NA,NA,NA,NA,true
dAlXHsDS,3headtgn3s5yqh3y5nncdnm28bcvrm,3x3or7wpz3drzra2jck8ohpmecq8l2,dAlXHsDS,2020-0188,2020-06-04,10:36:52,10:56:47,NA,incomplete,12,shape,0,1,right,Purple_Plus_Grid_2.jpg,Purple_Circle_Chess_1.jpg,Red_Plus_Stripes_4.jpg,right,679.5400000119116,true,NA,NA,NA,NA,NA,NA,NA,NA,true
dAlXHsDS,3headtgn3s5yqh3y5nncdnm28bcvrm,3x3or7wpz3drzra2jck8ohpmecq8l2,dAlXHsDS,2020-0188,2020-06-04,10:36:52,10:56:47,NA,incomplete,13,shape,0,1,left,Blue_Star_Chess_3.jpg,Red_Star_Dots_2.jpg,Blue_Plus_Stripes_1.jpg,left,1294.4200000201818,true,NA,NA,NA,NA,NA,NA,NA,NA,true
dAlXHsDS,3headtgn3s5yqh3y5nncdnm28bcvrm,3x3or7wpz3drzra2jck8ohpmecq8l2,dAlXHsDS,2020-0188,2020-06-04,10:36:52,10:56:47,NA,incomplete,14,shape,0,1,right,Green_Plus_Chess_4.jpg,Green_Circle_Grid_3.jpg,Blue_Plus_Dots_1.jpg,right,909.8649999941699,true,NA,NA,NA,NA,NA,NA,NA,NA,true
dAlXHsDS,3headtgn3s5yqh3y5nncdnm28bcvrm,3x3or7wpz3drzra2jck8ohpmecq8l2,dAlXHsDS,2020-0188,2020-06-04,10:36:52,10:56:47,NA,incomplete,15,shape,0,1,right,Green_Star_Grid_2.jpg,Green_Plus_Stripes_1.jpg,Blue_Star_Chess_4.jpg,right,1542.955000011716,true,NA,NA,NA,NA,NA,NA,NA,NA,true
dAlXHsDS,3headtgn3s5yqh3y5nncdnm28bcvrm,3x3or7wpz3drzra2jck8ohpmecq8l2,dAlXHsDS,2020-0188,2020-06-04,10:36:52,10:56:47,NA,incomplete,16,shape,0,1,left,Purple_Star_Chess_3.jpg,Green_Star_Stripes_4.jpg,Purple_Circle_Dots_2.jpg,left,763.0550000176299,true,NA,NA,NA,NA,NA,NA,NA,NA,true
dAlXHsDS,3headtgn3s5yqh3y5nncdnm28bcvrm,3x3or7wpz3drzra2jck8ohpmecq8l2,dAlXHsDS,2020-0188,2020-06-04,10:36:52,10:56:47,NA,incomplete,17,shape,0,1,left,Red_Star_Stripes_2.jpg,Green_Star_Dots_1.jpg,Red_Plus_Grid_3.jpg,left,885.5399999883957,true,NA,NA,NA,NA,NA,NA,NA,NA,true
dAlXHsDS,3headtgn3s5yqh3y5nncdnm28bcvrm,3x3or7wpz3drzra2jck8ohpmecq8l2,dAlXHsDS,2020-0188,2020-06-04,10:36:52,10:56:47,NA,incomplete,18,shape,0,1,left,Red_Circle_Grid_1.jpg,Green_Circle_Dots_3.jpg,Red_Triangle_Chess_4.jpg,left,709.1650000074878,true,NA,NA,NA,NA,NA,NA,NA,NA,true
dAlXHsDS,3headtgn3s5yqh3y5nncdnm28bcvrm,3x3or7wpz3drzra2jck8ohpmecq8l2,dAlXHsDS,2020-0188,2020-06-04,10:36:52,10:56:47,NA,incomplete,19,shape,0,0,right,Red_Triangle_Chess_2.jpg,Red_Circle_Dots_3.jpg,Purple_Triangle_Grid_1.jpg,right,957.5949999853037,true,NA,NA,NA,NA,NA,NA,NA,NA,true
dAlXHsDS,3headtgn3s5yqh3y5nncdnm28bcvrm,3x3or7wpz3drzra2jck8ohpmecq8l2,dAlXHsDS,2020-0188,2020-06-04,10:36:52,10:56:47,NA,incomplete,20,color,1,0,left,Green_Circle_Grid_2.jpg,Green_Star_Chess_3.jpg,Blue_Circle_Stripes_4.jpg,right,745.6999999994878,false,NA,NA,NA,NA,NA,NA,NA,NA,true
dAlXHsDS,3headtgn3s5yqh3y5nncdnm28bcvrm,3x3or7wpz3drzra2jck8ohpmecq8l2,dAlXHsDS,2020-0188,2020-06-04,10:36:52,10:56:47,NA,incomplete,21,color,1,1,right,Blue_Triangle_Stripes_1.jpg,Purple_Triangle_Chess_4.jpg,Blue_Star_Dots_3.jpg,left,1124.4049999804702,false,NA,NA,NA,NA,NA,NA,NA,NA,true
dAlXHsDS,3headtgn3s5yqh3y5nncdnm28bcvrm,3x3or7wpz3drzra2jck8ohpmecq8l2,dAlXHsDS,2020-0188,2020-06-04,10:36:52,10:56:47,NA,incomplete,22,color,1,1,right,Red_Star_Stripes_3.jpg,Blue_Star_Dots_2.jpg,Red_Circle_Chess_4.jpg,left,785.7650000078138,false,NA,NA,NA,NA,NA,NA,NA,NA,true
dAlXHsDS,3headtgn3s5yqh3y5nncdnm28bcvrm,3x3or7wpz3drzra2jck8ohpmecq8l2,dAlXHsDS,2020-0188,2020-06-04,10:36:52,10:56:47,NA,incomplete,23,color,1,1,right,Purple_Circle_Dots_2.jpg,Green_Circle_Stripes_3.jpg,Purple_Plus_Chess_1.jpg,right,1562.579999997979,true,NA,NA,NA,NA,NA,NA,NA,NA,true
dAlXHsDS,3headtgn3s5yqh3y5nncdnm28bcvrm,3x3or7wpz3drzra2jck8ohpmecq8l2,dAlXHsDS,2020-0188,2020-06-04,10:36:52,10:56:47,NA,incomplete,24,color,1,1,right,Blue_Circle_Grid_3.jpg,Purple_Circle_Dots_2.jpg,Blue_Star_Stripes_4.jpg,right,740.1399999798741,true,NA,NA,NA,NA,NA,NA,NA,NA,true
dAlXHsDS,3headtgn3s5yqh3y5nncdnm28bcvrm,3x3or7wpz3drzra2jck8ohpmecq8l2,dAlXHsDS,2020-0188,2020-06-04,10:36:52,10:56:47,NA,incomplete,25,color,1,1,left,Red_Plus_Grid_4.jpg,Red_Circle_Stripes_2.jpg,Green_Plus_Chess_3.jpg,left,993.6200000229292,true,NA,NA,NA,NA,NA,NA,NA,NA,true
dAlXHsDS,3headtgn3s5yqh3y5nncdnm28bcvrm,3x3or7wpz3drzra2jck8ohpmecq8l2,dAlXHsDS,2020-0188,2020-06-04,10:36:52,10:56:47,NA,incomplete,26,color,1,1,left,Purple_Triangle_Dots_2.jpg,Purple_Star_Stripes_4.jpg,Green_Triangle_Chess_3.jpg,left,1109.005000005709,true,NA,NA,NA,NA,NA,NA,NA,NA,true
dAlXHsDS,3headtgn3s5yqh3y5nncdnm28bcvrm,3x3or7wpz3drzra2jck8ohpmecq8l2,dAlXHsDS,2020-0188,2020-06-04,10:36:52,10:56:47,NA,incomplete,27,color,1,1,left,Purple_Triangle_Chess_4.jpg,Purple_Plus_Dots_3.jpg,Blue_Triangle_Grid_2.jpg,left,1322.4900000204798,true,NA,NA,NA,NA,NA,NA,NA,NA,true
dAlXHsDS,3headtgn3s5yqh3y5nncdnm28bcvrm,3x3or7wpz3drzra2jck8ohpmecq8l2,dAlXHsDS,2020-0188,2020-06-04,10:36:52,10:56:47,NA,incomplete,28,color,1,1,left,Blue_Star_Grid_4.jpg,Blue_Triangle_Stripes_2.jpg,Purple_Star_Dots_3.jpg,left,898.109999980079,true,NA,NA,NA,NA,NA,NA,NA,NA,true
dAlXHsDS,3headtgn3s5yqh3y5nncdnm28bcvrm,3x3or7wpz3drzra2jck8ohpmecq8l2,dAlXHsDS,2020-0188,2020-06-04,10:36:52,10:56:47,NA,incomplete,29,color,1,1,right,Purple_Triangle_Chess_2.jpg,Green_Triangle_Dots_4.jpg,Purple_Plus_Stripes_1.jpg,right,794.3150000064634,true,NA,NA,NA,NA,NA,NA,NA,NA,true
dAlXHsDS,3headtgn3s5yqh3y5nncdnm28bcvrm,3x3or7wpz3drzra2jck8ohpmecq8l2,dAlXHsDS,2020-0188,2020-06-04,10:36:52,10:56:47,NA,incomplete,30,color,1,0,right,Green_Circle_Stripes_4.jpg,Blue_Circle_Grid_1.jpg,Green_Plus_Chess_3.jpg,right,686.0299999825656,true,NA,NA,NA,NA,NA,NA,NA,NA,true
dAlXHsDS,3headtgn3s5yqh3y5nncdnm28bcvrm,3x3or7wpz3drzra2jck8ohpmecq8l2,dAlXHsDS,2020-0188,2020-06-04,10:36:52,10:56:47,NA,incomplete,31,color,1,1,left,Green_Triangle_Dots_4.jpg,Green_Star_Grid_2.jpg,Blue_Triangle_Chess_1.jpg,left,586.3250000111293,true,NA,NA,NA,NA,NA,NA,NA,NA,true
dAlXHsDS,3headtgn3s5yqh3y5nncdnm28bcvrm,3x3or7wpz3drzra2jck8ohpmecq8l2,dAlXHsDS,2020-0188,2020-06-04,10:36:52,10:56:47,NA,incomplete,32,color,1,1,left,Red_Plus_Chess_4.jpg,Red_Triangle_Stripes_2.jpg,Purple_Plus_Dots_1.jpg,left,815.8899999980349,true,NA,NA,NA,NA,NA,NA,NA,NA,true
dAlXHsDS,3headtgn3s5yqh3y5nncdnm28bcvrm,3x3or7wpz3drzra2jck8ohpmecq8l2,dAlXHsDS,2020-0188,2020-06-04,10:36:52,10:56:47,NA,incomplete,33,color,1,1,right,Purple_Plus_Chess_3.jpg,Blue_Plus_Grid_1.jpg,Purple_Circle_Stripes_4.jpg,right,620.0149999931455,true,NA,NA,NA,NA,NA,NA,NA,NA,true
dAlXHsDS,3headtgn3s5yqh3y5nncdnm28bcvrm,3x3or7wpz3drzra2jck8ohpmecq8l2,dAlXHsDS,2020-0188,2020-06-04,10:36:52,10:56:47,NA,incomplete,34,color,1,0,right,Green_Plus_Chess_3.jpg,Red_Plus_Stripes_4.jpg,Green_Triangle_Dots_1.jpg,right,476.44000002765097,true,NA,NA,NA,NA,NA,NA,NA,NA,true
dAlXHsDS,3headtgn3s5yqh3y5nncdnm28bcvrm,3x3or7wpz3drzra2jck8ohpmecq8l2,dAlXHsDS,2020-0188,2020-06-04,10:36:52,10:56:47,NA,incomplete,35,color,1,1,right,Purple_Star_Chess_1.jpg,Green_Star_Grid_3.jpg,Purple_Circle_Stripes_4.jpg,right,623.1799999950454,true,NA,NA,NA,NA,NA,NA,NA,NA,true
dAlXHsDS,3headtgn3s5yqh3y5nncdnm28bcvrm,3x3or7wpz3drzra2jck8ohpmecq8l2,dAlXHsDS,2020-0188,2020-06-04,10:36:52,10:56:47,NA,incomplete,36,color,1,0,right,Purple_Circle_Stripes_3.jpg,Blue_Circle_Chess_1.jpg,Purple_Triangle_Grid_2.jpg,right,546.5099999855738,true,NA,NA,NA,NA,NA,NA,NA,NA,true
dAlXHsDS,3headtgn3s5yqh3y5nncdnm28bcvrm,3x3or7wpz3drzra2jck8ohpmecq8l2,dAlXHsDS,2020-0188,2020-06-04,10:36:52,10:56:47,NA,incomplete,37,color,1,1,left,Blue_Triangle_Dots_4.jpg,Blue_Circle_Grid_1.jpg,Red_Triangle_Stripes_3.jpg,left,446.9800000078976,true,NA,NA,NA,NA,NA,NA,NA,NA,true
dAlXHsDS,3headtgn3s5yqh3y5nncdnm28bcvrm,3x3or7wpz3drzra2jck8ohpmecq8l2,dAlXHsDS,2020-0188,2020-06-04,10:36:52,10:56:47,NA,incomplete,38,color,1,1,right,Green_Star_Dots_2.jpg,Red_Star_Chess_3.jpg,Green_Plus_Stripes_4.jpg,right,438.90000000828877,true,NA,NA,NA,NA,NA,NA,NA,NA,true
dAlXHsDS,3headtgn3s5yqh3y5nncdnm28bcvrm,3x3or7wpz3drzra2jck8ohpmecq8l2,dAlXHsDS,2020-0188,2020-06-04,10:36:52,10:56:47,NA,incomplete,39,color,1,0,right,Purple_Triangle_Dots_1.jpg,Green_Triangle_Stripes_2.jpg,Purple_Star_Grid_3.jpg,right,523.0649999866728,true,NA,NA,NA,NA,NA,NA,NA,NA,true
dAlXHsDS,3headtgn3s5yqh3y5nncdnm28bcvrm,3x3or7wpz3drzra2jck8ohpmecq8l2,dAlXHsDS,2020-0188,2020-06-04,10:36:52,10:56:47,NA,incomplete,0,shape,0,0,left,Purple_Plus_Stripes_2.jpg,Green_Plus_Dots_4.jpg,Purple_Star_Chess_1.jpg,right,1459.5400000107475,false,high,NA,NA,NA,NA,NA,NA,NA,false
dAlXHsDS,3headtgn3s5yqh3y5nncdnm28bcvrm,3x3or7wpz3drzra2jck8ohpmecq8l2,dAlXHsDS,2020-0188,2020-06-04,10:36:52,10:56:47,NA,incomplete,1,shape,0,1,left,Green_Plus_Chess_2.jpg,Blue_Plus_Dots_3.jpg,Green_Circle_Stripes_4.jpg,right,1915.485000004992,false,high,NA,NA,NA,NA,NA,NA,NA,false
dAlXHsDS,3headtgn3s5yqh3y5nncdnm28bcvrm,3x3or7wpz3drzra2jck8ohpmecq8l2,dAlXHsDS,2020-0188,2020-06-04,10:36:52,10:56:47,NA,incomplete,2,shape,0,1,right,Purple_Triangle_Chess_2.jpg,Purple_Star_Grid_3.jpg,Blue_Triangle_Stripes_1.jpg,right,881.4649999840185,true,high,NA,NA,NA,NA,NA,NA,NA,false
dAlXHsDS,3headtgn3s5yqh3y5nncdnm28bcvrm,3x3or7wpz3drzra2jck8ohpmecq8l2,dAlXHsDS,2020-0188,2020-06-04,10:36:52,10:56:47,NA,incomplete,3,shape,0,1,right,Blue_Triangle_Stripes_1.jpg,Blue_Plus_Grid_2.jpg,Purple_Triangle_Dots_3.jpg,right,1199.2350000073202,true,high,NA,NA,NA,NA,NA,NA,NA,false
dAlXHsDS,3headtgn3s5yqh3y5nncdnm28bcvrm,3x3or7wpz3drzra2jck8ohpmecq8l2,dAlXHsDS,2020-0188,2020-06-04,10:36:52,10:56:47,NA,incomplete,4,shape,0,1,right,Purple_Star_Dots_4.jpg,Purple_Triangle_Grid_1.jpg,Green_Star_Stripes_3.jpg,right,1562.3999999952503,true,high,NA,NA,NA,NA,NA,NA,NA,false
dAlXHsDS,3headtgn3s5yqh3y5nncdnm28bcvrm,3x3or7wpz3drzra2jck8ohpmecq8l2,dAlXHsDS,2020-0188,2020-06-04,10:36:52,10:56:47,NA,incomplete,5,shape,0,1,right,Green_Plus_Grid_2.jpg,Green_Circle_Chess_3.jpg,Red_Plus_Stripes_1.jpg,right,1300.9799999999814,true,high,NA,NA,NA,NA,NA,NA,NA,false
dAlXHsDS,3headtgn3s5yqh3y5nncdnm28bcvrm,3x3or7wpz3drzra2jck8ohpmecq8l2,dAlXHsDS,2020-0188,2020-06-04,10:36:52,10:56:47,NA,incomplete,6,shape,0,1,left,Green_Plus_Stripes_2.jpg,Blue_Plus_Chess_4.jpg,Green_Star_Grid_3.jpg,left,737.0450000162236,true,high,NA,NA,NA,NA,NA,NA,NA,false
dAlXHsDS,3headtgn3s5yqh3y5nncdnm28bcvrm,3x3or7wpz3drzra2jck8ohpmecq8l2,dAlXHsDS,2020-0188,2020-06-04,10:36:52,10:56:47,NA,incomplete,7,shape,0,1,right,Green_Triangle_Stripes_3.jpg,Green_Circle_Grid_2.jpg,Red_Triangle_Dots_4.jpg,right,719.279999990249,true,high,NA,NA,NA,NA,NA,NA,NA,false
dAlXHsDS,3headtgn3s5yqh3y5nncdnm28bcvrm,3x3or7wpz3drzra2jck8ohpmecq8l2,dAlXHsDS,2020-0188,2020-06-04,10:36:52,10:56:47,NA,incomplete,8,shape,0,1,right,Blue_Triangle_Dots_3.jpg,Blue_Plus_Grid_2.jpg,Purple_Triangle_Chess_1.jpg,none,0,false,high,NA,NA,NA,NA,NA,NA,NA,false
dAlXHsDS,3headtgn3s5yqh3y5nncdnm28bcvrm,3x3or7wpz3drzra2jck8ohpmecq8l2,dAlXHsDS,2020-0188,2020-06-04,10:36:52,10:56:47,NA,incomplete,9,shape,0,0,left,Green_Circle_Grid_1.jpg,Red_Circle_Stripes_3.jpg,Green_Plus_Dots_4.jpg,left,887.0300000126008,true,high,NA,NA,NA,NA,NA,NA,NA,false
dAlXHsDS,3headtgn3s5yqh3y5nncdnm28bcvrm,3x3or7wpz3drzra2jck8ohpmecq8l2,dAlXHsDS,2020-0188,2020-06-04,10:36:52,10:56:47,NA,incomplete,10,color,1,0,right,Red_Triangle_Dots_3.jpg,Purple_Triangle_Chess_4.jpg,Red_Plus_Stripes_1.jpg,right,1288.8249999959953,true,high,NA,NA,NA,NA,NA,NA,NA,false
dAlXHsDS,3headtgn3s5yqh3y5nncdnm28bcvrm,3x3or7wpz3drzra2jck8ohpmecq8l2,dAlXHsDS,2020-0188,2020-06-04,10:36:52,10:56:47,NA,incomplete,11,color,1,1,right,Purple_Triangle_Grid_3.jpg,Red_Triangle_Chess_4.jpg,Purple_Circle_Stripes_2.jpg,left,1078.6150000058115,false,high,NA,NA,NA,NA,NA,NA,NA,false
dAlXHsDS,3headtgn3s5yqh3y5nncdnm28bcvrm,3x3or7wpz3drzra2jck8ohpmecq8l2,dAlXHsDS,2020-0188,2020-06-04,10:36:52,10:56:47,NA,incomplete,12,color,1,1,left,Purple_Star_Stripes_4.jpg,Purple_Circle_Grid_3.jpg,Green_Star_Dots_2.jpg,right,1242.0950000232551,false,high,NA,NA,NA,NA,NA,NA,NA,false
dAlXHsDS,3headtgn3s5yqh3y5nncdnm28bcvrm,3x3or7wpz3drzra2jck8ohpmecq8l2,dAlXHsDS,2020-0188,2020-06-04,10:36:52,10:56:47,NA,incomplete,13,color,1,1,left,Blue_Plus_Dots_4.jpg,Blue_Circle_Chess_2.jpg,Red_Plus_Stripes_3.jpg,left,779.4649999996182,true,high,NA,NA,NA,NA,NA,NA,NA,false
dAlXHsDS,3headtgn3s5yqh3y5nncdnm28bcvrm,3x3or7wpz3drzra2jck8ohpmecq8l2,dAlXHsDS,2020-0188,2020-06-04,10:36:52,10:56:47,NA,incomplete,14,color,1,1,left,Purple_Circle_Grid_3.jpg,Purple_Triangle_Dots_4.jpg,Blue_Circle_Stripes_2.jpg,left,959.499999997206,true,high,NA,NA,NA,NA,NA,NA,NA,false
dAlXHsDS,3headtgn3s5yqh3y5nncdnm28bcvrm,3x3or7wpz3drzra2jck8ohpmecq8l2,dAlXHsDS,2020-0188,2020-06-04,10:36:52,10:56:47,NA,incomplete,15,color,1,1,left,Blue_Star_Grid_2.jpg,Blue_Triangle_Stripes_3.jpg,Purple_Star_Chess_4.jpg,left,849.2299999925308,true,high,NA,NA,NA,NA,NA,NA,NA,false
dAlXHsDS,3headtgn3s5yqh3y5nncdnm28bcvrm,3x3or7wpz3drzra2jck8ohpmecq8l2,dAlXHsDS,2020-0188,2020-06-04,10:36:52,10:56:47,NA,incomplete,16,color,1,1,right,Red_Circle_Stripes_4.jpg,Purple_Circle_Dots_3.jpg,Red_Plus_Grid_2.jpg,right,812.9250000056345,true,high,NA,NA,NA,NA,NA,NA,NA,false
dAlXHsDS,3headtgn3s5yqh3y5nncdnm28bcvrm,3x3or7wpz3drzra2jck8ohpmecq8l2,dAlXHsDS,2020-0188,2020-06-04,10:36:52,10:56:47,NA,incomplete,17,color,1,1,right,Green_Star_Dots_3.jpg,Blue_Star_Grid_2.jpg,Green_Circle_Stripes_1.jpg,right,1392.7399999811314,true,high,NA,NA,NA,NA,NA,NA,NA,false
dAlXHsDS,3headtgn3s5yqh3y5nncdnm28bcvrm,3x3or7wpz3drzra2jck8ohpmecq8l2,dAlXHsDS,2020-0188,2020-06-04,10:36:52,10:56:47,NA,incomplete,18,color,1,1,left,Red_Plus_Dots_4.jpg,Red_Circle_Grid_2.jpg,Blue_Plus_Stripes_3.jpg,left,899.8150000115857,true,high,NA,NA,NA,NA,NA,NA,NA,false
dAlXHsDS,3headtgn3s5yqh3y5nncdnm28bcvrm,3x3or7wpz3drzra2jck8ohpmecq8l2,dAlXHsDS,2020-0188,2020-06-04,10:36:52,10:56:47,NA,incomplete,19,color,1,1,left,Blue_Circle_Grid_1.jpg,Blue_Star_Dots_4.jpg,Green_Circle_Stripes_3.jpg,left,1275.6550000049174,true,high,NA,NA,NA,NA,NA,NA,NA,false
dAlXHsDS,3headtgn3s5yqh3y5nncdnm28bcvrm,3x3or7wpz3drzra2jck8ohpmecq8l2,dAlXHsDS,2020-0188,2020-06-04,10:36:52,10:56:47,NA,incomplete,20,shape,0,1,right,Red_Circle_Chess_2.jpg,Red_Plus_Grid_1.jpg,Blue_Circle_Dots_4.jpg,left,1360.339999984717,false,high,NA,NA,NA,NA,NA,NA,NA,false
dAlXHsDS,3headtgn3s5yqh3y5nncdnm28bcvrm,3x3or7wpz3drzra2jck8ohpmecq8l2,dAlXHsDS,2020-0188,2020-06-04,10:36:52,10:56:47,NA,incomplete,21,shape,0,1,left,Blue_Triangle_Stripes_2.jpg,Purple_Triangle_Chess_4.jpg,Blue_Plus_Grid_1.jpg,right,725.2399999997579,false,high,NA,NA,NA,NA,NA,NA,NA,false
dAlXHsDS,3headtgn3s5yqh3y5nncdnm28bcvrm,3x3or7wpz3drzra2jck8ohpmecq8l2,dAlXHsDS,2020-0188,2020-06-04,10:36:52,10:56:47,NA,incomplete,22,shape,0,1,left,Blue_Plus_Chess_4.jpg,Purple_Plus_Dots_2.jpg,Blue_Circle_Grid_1.jpg,left,860.7049999991432,true,high,NA,NA,NA,NA,NA,NA,NA,false
dAlXHsDS,3headtgn3s5yqh3y5nncdnm28bcvrm,3x3or7wpz3drzra2jck8ohpmecq8l2,dAlXHsDS,2020-0188,2020-06-04,10:36:52,10:56:47,NA,incomplete,23,shape,0,1,left,Red_Circle_Grid_2.jpg,Green_Circle_Dots_4.jpg,Red_Triangle_Chess_3.jpg,left,1017.3249999934342,true,high,NA,NA,NA,NA,NA,NA,NA,false
dAlXHsDS,3headtgn3s5yqh3y5nncdnm28bcvrm,3x3or7wpz3drzra2jck8ohpmecq8l2,dAlXHsDS,2020-0188,2020-06-04,10:36:52,10:56:47,NA,incomplete,24,shape,0,1,left,Red_Star_Chess_3.jpg,Blue_Star_Stripes_4.jpg,Red_Circle_Dots_1.jpg,none,0,false,high,NA,NA,NA,NA,NA,NA,NA,false
dAlXHsDS,3headtgn3s5yqh3y5nncdnm28bcvrm,3x3or7wpz3drzra2jck8ohpmecq8l2,dAlXHsDS,2020-0188,2020-06-04,10:36:52,10:56:47,NA,incomplete,25,shape,0,1,right,Red_Circle_Grid_4.jpg,Red_Plus_Dots_1.jpg,Blue_Circle_Chess_2.jpg,right,845.1050000148825,true,high,NA,NA,NA,NA,NA,NA,NA,false
dAlXHsDS,3headtgn3s5yqh3y5nncdnm28bcvrm,3x3or7wpz3drzra2jck8ohpmecq8l2,dAlXHsDS,2020-0188,2020-06-04,10:36:52,10:56:47,NA,incomplete,26,shape,0,1,left,Red_Star_Dots_4.jpg,Blue_Star_Chess_2.jpg,Red_Circle_Stripes_1.jpg,left,940.9549999982119,true,high,NA,NA,NA,NA,NA,NA,NA,false
dAlXHsDS,3headtgn3s5yqh3y5nncdnm28bcvrm,3x3or7wpz3drzra2jck8ohpmecq8l2,dAlXHsDS,2020-0188,2020-06-04,10:36:52,10:56:47,NA,incomplete,27,shape,0,1,right,Red_Triangle_Dots_3.jpg,Red_Star_Grid_2.jpg,Blue_Triangle_Stripes_1.jpg,right,638.0099999951199,true,high,NA,NA,NA,NA,NA,NA,NA,false
dAlXHsDS,3headtgn3s5yqh3y5nncdnm28bcvrm,3x3or7wpz3drzra2jck8ohpmecq8l2,dAlXHsDS,2020-0188,2020-06-04,10:36:52,10:56:47,NA,incomplete,28,shape,0,1,right,Red_Triangle_Grid_1.jpg,Red_Plus_Chess_2.jpg,Green_Triangle_Dots_3.jpg,right,1093.6649999930523,true,high,NA,NA,NA,NA,NA,NA,NA,false
dAlXHsDS,3headtgn3s5yqh3y5nncdnm28bcvrm,3x3or7wpz3drzra2jck8ohpmecq8l2,dAlXHsDS,2020-0188,2020-06-04,10:36:52,10:56:47,NA,incomplete,29,shape,0,1,left,Red_Circle_Stripes_4.jpg,Green_Circle_Chess_3.jpg,Red_Triangle_Grid_2.jpg,left,675.1850000000559,true,high,NA,NA,NA,NA,NA,NA,NA,false
dAlXHsDS,3headtgn3s5yqh3y5nncdnm28bcvrm,3x3or7wpz3drzra2jck8ohpmecq8l2,dAlXHsDS,2020-0188,2020-06-04,10:36:52,10:56:47,NA,incomplete,30,color,1,1,left,Green_Plus_Chess_1.jpg,Green_Triangle_Stripes_4.jpg,Red_Plus_Dots_3.jpg,right,660.1050000172108,false,high,NA,NA,NA,NA,NA,NA,NA,false
dAlXHsDS,3headtgn3s5yqh3y5nncdnm28bcvrm,3x3or7wpz3drzra2jck8ohpmecq8l2,dAlXHsDS,2020-0188,2020-06-04,10:36:52,10:56:47,NA,incomplete,31,color,1,1,left,Blue_Circle_Grid_1.jpg,Blue_Plus_Dots_3.jpg,Green_Circle_Chess_4.jpg,left,631.0250000096858,true,high,NA,NA,NA,NA,NA,NA,NA,false
dAlXHsDS,3headtgn3s5yqh3y5nncdnm28bcvrm,3x3or7wpz3drzra2jck8ohpmecq8l2,dAlXHsDS,2020-0188,2020-06-04,10:36:52,10:56:47,NA,incomplete,32,color,1,1,right,Blue_Triangle_Stripes_1.jpg,Green_Triangle_Chess_3.jpg,Blue_Star_Grid_2.jpg,right,1046.7399999906775,true,high,NA,NA,NA,NA,NA,NA,NA,false
dAlXHsDS,3headtgn3s5yqh3y5nncdnm28bcvrm,3x3or7wpz3drzra2jck8ohpmecq8l2,dAlXHsDS,2020-0188,2020-06-04,10:36:52,10:56:47,NA,incomplete,33,color,1,0,left,Blue_Circle_Grid_3.jpg,Blue_Plus_Stripes_1.jpg,Purple_Circle_Chess_4.jpg,left,468.11499999603257,true,high,NA,NA,NA,NA,NA,NA,NA,false
dAlXHsDS,3headtgn3s5yqh3y5nncdnm28bcvrm,3x3or7wpz3drzra2jck8ohpmecq8l2,dAlXHsDS,2020-0188,2020-06-04,10:36:52,10:56:47,NA,incomplete,34,color,1,1,left,Purple_Plus_Stripes_4.jpg,Purple_Triangle_Grid_1.jpg,Blue_Plus_Chess_2.jpg,left,613.8600000122096,true,high,NA,NA,NA,NA,NA,NA,NA,false
dAlXHsDS,3headtgn3s5yqh3y5nncdnm28bcvrm,3x3or7wpz3drzra2jck8ohpmecq8l2,dAlXHsDS,2020-0188,2020-06-04,10:36:52,10:56:47,NA,incomplete,35,color,1,0,left,Green_Star_Dots_4.jpg,Green_Circle_Grid_2.jpg,Purple_Star_Chess_3.jpg,left,715.5600000114646,true,high,NA,NA,NA,NA,NA,NA,NA,false
dAlXHsDS,3headtgn3s5yqh3y5nncdnm28bcvrm,3x3or7wpz3drzra2jck8ohpmecq8l2,dAlXHsDS,2020-0188,2020-06-04,10:36:52,10:56:47,NA,incomplete,36,color,1,1,right,Purple_Circle_Chess_3.jpg,Red_Circle_Dots_1.jpg,Purple_Star_Stripes_2.jpg,left,935.1500000047963,false,high,NA,NA,NA,NA,NA,NA,NA,false
dAlXHsDS,3headtgn3s5yqh3y5nncdnm28bcvrm,3x3or7wpz3drzra2jck8ohpmecq8l2,dAlXHsDS,2020-0188,2020-06-04,10:36:52,10:56:47,NA,incomplete,37,color,1,0,left,Green_Plus_Chess_4.jpg,Green_Triangle_Grid_1.jpg,Purple_Plus_Dots_2.jpg,left,553.6000000138301,true,high,NA,NA,NA,NA,NA,NA,NA,false
dAlXHsDS,3headtgn3s5yqh3y5nncdnm28bcvrm,3x3or7wpz3drzra2jck8ohpmecq8l2,dAlXHsDS,2020-0188,2020-06-04,10:36:52,10:56:47,NA,incomplete,38,color,1,0,right,Red_Plus_Stripes_2.jpg,Blue_Plus_Dots_1.jpg,Red_Circle_Grid_4.jpg,left,1055.0099999818485,false,high,NA,NA,NA,NA,NA,NA,NA,false
dAlXHsDS,3headtgn3s5yqh3y5nncdnm28bcvrm,3x3or7wpz3drzra2jck8ohpmecq8l2,dAlXHsDS,2020-0188,2020-06-04,10:36:52,10:56:47,NA,incomplete,39,color,1,1,right,Purple_Plus_Dots_3.jpg,Green_Plus_Stripes_1.jpg,Purple_Star_Grid_2.jpg,left,1393.4599999920465,false,high,NA,NA,NA,NA,NA,NA,NA,false
dAlXHsDS,3headtgn3s5yqh3y5nncdnm28bcvrm,3x3or7wpz3drzra2jck8ohpmecq8l2,dAlXHsDS,2020-0188,2020-06-04,10:36:52,10:56:47,NA,incomplete,40,shape,0,1,right,Green_Circle_Grid_2.jpg,Green_Triangle_Chess_1.jpg,Blue_Circle_Stripes_3.jpg,right,887.8099999856204,true,high,NA,NA,NA,NA,NA,NA,NA,false
dAlXHsDS,3headtgn3s5yqh3y5nncdnm28bcvrm,3x3or7wpz3drzra2jck8ohpmecq8l2,dAlXHsDS,2020-0188,2020-06-04,10:36:52,10:56:47,NA,incomplete,41,shape,0,1,left,Green_Plus_Stripes_3.jpg,Blue_Plus_Grid_1.jpg,Green_Circle_Chess_4.jpg,left,825.7549999980256,true,high,NA,NA,NA,NA,NA,NA,NA,false
dAlXHsDS,3headtgn3s5yqh3y5nncdnm28bcvrm,3x3or7wpz3drzra2jck8ohpmecq8l2,dAlXHsDS,2020-0188,2020-06-04,10:36:52,10:56:47,NA,incomplete,42,shape,0,1,right,Purple_Triangle_Dots_4.jpg,Purple_Star_Stripes_3.jpg,Green_Triangle_Grid_2.jpg,right,806.2499999941792,true,high,NA,NA,NA,NA,NA,NA,NA,false
dAlXHsDS,3headtgn3s5yqh3y5nncdnm28bcvrm,3x3or7wpz3drzra2jck8ohpmecq8l2,dAlXHsDS,2020-0188,2020-06-04,10:36:52,10:56:47,NA,incomplete,43,shape,0,1,left,Purple_Star_Stripes_4.jpg,Red_Star_Grid_3.jpg,Purple_Triangle_Chess_1.jpg,left,629.4849999831058,true,high,NA,NA,NA,NA,NA,NA,NA,false
dAlXHsDS,3headtgn3s5yqh3y5nncdnm28bcvrm,3x3or7wpz3drzra2jck8ohpmecq8l2,dAlXHsDS,2020-0188,2020-06-04,10:36:52,10:56:47,NA,incomplete,44,shape,0,1,left,Red_Star_Dots_3.jpg,Purple_Star_Chess_4.jpg,Red_Plus_Stripes_2.jpg,right,560.2000000071712,false,high,NA,NA,NA,NA,NA,NA,NA,false
dAlXHsDS,3headtgn3s5yqh3y5nncdnm28bcvrm,3x3or7wpz3drzra2jck8ohpmecq8l2,dAlXHsDS,2020-0188,2020-06-04,10:36:52,10:56:47,NA,incomplete,45,shape,0,0,left,Blue_Plus_Dots_4.jpg,Red_Plus_Stripes_3.jpg,Blue_Circle_Grid_1.jpg,left,1109.5449999847915,true,high,NA,NA,NA,NA,NA,NA,NA,false
dAlXHsDS,3headtgn3s5yqh3y5nncdnm28bcvrm,3x3or7wpz3drzra2jck8ohpmecq8l2,dAlXHsDS,2020-0188,2020-06-04,10:36:52,10:56:47,NA,incomplete,46,shape,0,1,right,Blue_Star_Chess_4.jpg,Blue_Triangle_Dots_2.jpg,Green_Star_Stripes_3.jpg,left,514.1249999869615,false,high,NA,NA,NA,NA,NA,NA,NA,false
dAlXHsDS,3headtgn3s5yqh3y5nncdnm28bcvrm,3x3or7wpz3drzra2jck8ohpmecq8l2,dAlXHsDS,2020-0188,2020-06-04,10:36:52,10:56:47,NA,incomplete,47,shape,0,0,left,Blue_Plus_Dots_1.jpg,Green_Plus_Grid_3.jpg,Blue_Circle_Chess_4.jpg,left,714.4849999749567,true,high,NA,NA,NA,NA,NA,NA,NA,false
dAlXHsDS,3headtgn3s5yqh3y5nncdnm28bcvrm,3x3or7wpz3drzra2jck8ohpmecq8l2,dAlXHsDS,2020-0188,2020-06-04,10:36:52,10:56:47,NA,incomplete,48,shape,0,1,right,Green_Triangle_Grid_4.jpg,Green_Plus_Dots_3.jpg,Purple_Triangle_Chess_2.jpg,left,863.48500000895,false,high,NA,NA,NA,NA,NA,NA,NA,false
dAlXHsDS,3headtgn3s5yqh3y5nncdnm28bcvrm,3x3or7wpz3drzra2jck8ohpmecq8l2,dAlXHsDS,2020-0188,2020-06-04,10:36:52,10:56:47,NA,incomplete,49,shape,0,1,left,Blue_Circle_Chess_1.jpg,Red_Circle_Grid_3.jpg,Blue_Star_Stripes_2.jpg,left,1323.7750000262167,true,high,NA,NA,NA,NA,NA,NA,NA,false
dAlXHsDS,3headtgn3s5yqh3y5nncdnm28bcvrm,3x3or7wpz3drzra2jck8ohpmecq8l2,dAlXHsDS,2020-0188,2020-06-04,10:36:52,10:56:47,NA,incomplete,50,color,1,1,left,Red_Triangle_Stripes_1.jpg,Red_Circle_Grid_2.jpg,Blue_Triangle_Chess_4.jpg,right,914.9650000035763,false,high,NA,NA,NA,NA,NA,NA,NA,false
dAlXHsDS,3headtgn3s5yqh3y5nncdnm28bcvrm,3x3or7wpz3drzra2jck8ohpmecq8l2,dAlXHsDS,2020-0188,2020-06-04,10:36:52,10:56:47,NA,incomplete,51,color,1,1,left,Blue_Star_Chess_2.jpg,Blue_Circle_Dots_4.jpg,Green_Star_Grid_3.jpg,right,739.2549999931362,false,high,NA,NA,NA,NA,NA,NA,NA,false
dAlXHsDS,3headtgn3s5yqh3y5nncdnm28bcvrm,3x3or7wpz3drzra2jck8ohpmecq8l2,dAlXHsDS,2020-0188,2020-06-04,10:36:52,10:56:47,NA,incomplete,52,color,1,0,left,Blue_Triangle_Stripes_1.jpg,Blue_Star_Grid_4.jpg,Purple_Triangle_Chess_2.jpg,left,533.4250000014435,true,high,NA,NA,NA,NA,NA,NA,NA,false
dAlXHsDS,3headtgn3s5yqh3y5nncdnm28bcvrm,3x3or7wpz3drzra2jck8ohpmecq8l2,dAlXHsDS,2020-0188,2020-06-04,10:36:52,10:56:47,NA,incomplete,53,color,1,1,left,Blue_Star_Dots_1.jpg,Blue_Circle_Chess_3.jpg,Red_Star_Stripes_2.jpg,left,1499.874999979511,true,high,NA,NA,NA,NA,NA,NA,NA,false
dAlXHsDS,3headtgn3s5yqh3y5nncdnm28bcvrm,3x3or7wpz3drzra2jck8ohpmecq8l2,dAlXHsDS,2020-0188,2020-06-04,10:36:52,10:56:47,NA,incomplete,54,color,1,1,left,Green_Plus_Stripes_3.jpg,Green_Star_Grid_4.jpg,Red_Plus_Dots_2.jpg,left,977.3449999920558,true,high,NA,NA,NA,NA,NA,NA,NA,false
dAlXHsDS,3headtgn3s5yqh3y5nncdnm28bcvrm,3x3or7wpz3drzra2jck8ohpmecq8l2,dAlXHsDS,2020-0188,2020-06-04,10:36:52,10:56:47,NA,incomplete,55,color,1,1,left,Purple_Circle_Grid_2.jpg,Purple_Plus_Chess_3.jpg,Green_Circle_Dots_4.jpg,left,574.3200000142679,true,high,NA,NA,NA,NA,NA,NA,NA,false
dAlXHsDS,3headtgn3s5yqh3y5nncdnm28bcvrm,3x3or7wpz3drzra2jck8ohpmecq8l2,dAlXHsDS,2020-0188,2020-06-04,10:36:52,10:56:47,NA,incomplete,56,color,1,1,right,Purple_Plus_Grid_3.jpg,Green_Plus_Dots_1.jpg,Purple_Star_Chess_4.jpg,right,597.4250000144821,true,high,NA,NA,NA,NA,NA,NA,NA,false
dAlXHsDS,3headtgn3s5yqh3y5nncdnm28bcvrm,3x3or7wpz3drzra2jck8ohpmecq8l2,dAlXHsDS,2020-0188,2020-06-04,10:36:52,10:56:47,NA,incomplete,57,color,1,1,right,Blue_Circle_Chess_2.jpg,Red_Circle_Stripes_3.jpg,Blue_Triangle_Dots_4.jpg,right,487.92000001412816,true,high,NA,NA,NA,NA,NA,NA,NA,false
dAlXHsDS,3headtgn3s5yqh3y5nncdnm28bcvrm,3x3or7wpz3drzra2jck8ohpmecq8l2,dAlXHsDS,2020-0188,2020-06-04,10:36:52,10:56:47,NA,incomplete,58,color,1,1,right,Red_Circle_Chess_4.jpg,Purple_Circle_Grid_3.jpg,Red_Plus_Stripes_1.jpg,right,777.5149999943096,true,high,NA,NA,NA,NA,NA,NA,NA,false
dAlXHsDS,3headtgn3s5yqh3y5nncdnm28bcvrm,3x3or7wpz3drzra2jck8ohpmecq8l2,dAlXHsDS,2020-0188,2020-06-04,10:36:52,10:56:47,NA,incomplete,59,color,1,1,left,Blue_Triangle_Stripes_3.jpg,Blue_Circle_Grid_4.jpg,Red_Triangle_Chess_1.jpg,left,1083.890000008978,true,high,NA,NA,NA,NA,NA,NA,NA,false
dAlXHsDS,3headtgn3s5yqh3y5nncdnm28bcvrm,3x3or7wpz3drzra2jck8ohpmecq8l2,dAlXHsDS,2020-0188,2020-06-04,10:36:52,10:56:47,NA,incomplete,60,shape,0,1,left,Green_Circle_Dots_1.jpg,Blue_Circle_Grid_3.jpg,Green_Plus_Stripes_4.jpg,right,513.520000007702,false,high,NA,NA,NA,NA,NA,NA,NA,false
dAlXHsDS,3headtgn3s5yqh3y5nncdnm28bcvrm,3x3or7wpz3drzra2jck8ohpmecq8l2,dAlXHsDS,2020-0188,2020-06-04,10:36:52,10:56:47,NA,incomplete,61,shape,0,1,left,Purple_Star_Chess_2.jpg,Red_Star_Grid_4.jpg,Purple_Plus_Stripes_3.jpg,right,531.8499999993946,false,high,NA,NA,NA,NA,NA,NA,NA,false
dAlXHsDS,3headtgn3s5yqh3y5nncdnm28bcvrm,3x3or7wpz3drzra2jck8ohpmecq8l2,dAlXHsDS,2020-0188,2020-06-04,10:36:52,10:56:47,NA,incomplete,62,shape,0,1,right,Red_Plus_Dots_4.jpg,Red_Triangle_Grid_1.jpg,Purple_Plus_Chess_2.jpg,right,1218.2899999897927,true,high,NA,NA,NA,NA,NA,NA,NA,false
dAlXHsDS,3headtgn3s5yqh3y5nncdnm28bcvrm,3x3or7wpz3drzra2jck8ohpmecq8l2,dAlXHsDS,2020-0188,2020-06-04,10:36:52,10:56:47,NA,incomplete,63,shape,0,0,left,Purple_Triangle_Grid_1.jpg,Red_Triangle_Dots_3.jpg,Purple_Star_Chess_2.jpg,left,763.9350000245031,true,high,NA,NA,NA,NA,NA,NA,NA,false
dAlXHsDS,3headtgn3s5yqh3y5nncdnm28bcvrm,3x3or7wpz3drzra2jck8ohpmecq8l2,dAlXHsDS,2020-0188,2020-06-04,10:36:52,10:56:47,NA,incomplete,64,shape,0,0,left,Green_Star_Grid_4.jpg,Purple_Star_Dots_1.jpg,Green_Triangle_Chess_3.jpg,left,1012.3200000089128,true,high,NA,NA,NA,NA,NA,NA,NA,false
dAlXHsDS,3headtgn3s5yqh3y5nncdnm28bcvrm,3x3or7wpz3drzra2jck8ohpmecq8l2,dAlXHsDS,2020-0188,2020-06-04,10:36:52,10:56:47,NA,incomplete,65,shape,0,1,left,Blue_Plus_Stripes_4.jpg,Red_Plus_Chess_2.jpg,Blue_Circle_Grid_1.jpg,left,1016.7149999761023,true,high,NA,NA,NA,NA,NA,NA,NA,false
dAlXHsDS,3headtgn3s5yqh3y5nncdnm28bcvrm,3x3or7wpz3drzra2jck8ohpmecq8l2,dAlXHsDS,2020-0188,2020-06-04,10:36:52,10:56:47,NA,incomplete,66,shape,0,0,left,Green_Star_Grid_3.jpg,Purple_Star_Stripes_2.jpg,Green_Plus_Dots_4.jpg,left,1211.4699999801815,true,high,NA,NA,NA,NA,NA,NA,NA,false
dAlXHsDS,3headtgn3s5yqh3y5nncdnm28bcvrm,3x3or7wpz3drzra2jck8ohpmecq8l2,dAlXHsDS,2020-0188,2020-06-04,10:36:52,10:56:47,NA,incomplete,67,shape,0,1,left,Purple_Triangle_Dots_3.jpg,Blue_Triangle_Stripes_1.jpg,Purple_Circle_Grid_2.jpg,right,764.9150000070222,false,high,NA,NA,NA,NA,NA,NA,NA,false
dAlXHsDS,3headtgn3s5yqh3y5nncdnm28bcvrm,3x3or7wpz3drzra2jck8ohpmecq8l2,dAlXHsDS,2020-0188,2020-06-04,10:36:52,10:56:47,NA,incomplete,68,shape,0,1,right,Blue_Star_Chess_2.jpg,Blue_Circle_Stripes_1.jpg,Purple_Star_Grid_3.jpg,right,1198.8000000128523,true,high,NA,NA,NA,NA,NA,NA,NA,false
dAlXHsDS,3headtgn3s5yqh3y5nncdnm28bcvrm,3x3or7wpz3drzra2jck8ohpmecq8l2,dAlXHsDS,2020-0188,2020-06-04,10:36:52,10:56:47,NA,incomplete,69,shape,0,1,left,Green_Plus_Grid_1.jpg,Red_Plus_Stripes_2.jpg,Green_Triangle_Dots_3.jpg,left,755.9750000073109,true,high,NA,NA,NA,NA,NA,NA,NA,false
dAlXHsDS,3headtgn3s5yqh3y5nncdnm28bcvrm,3x3or7wpz3drzra2jck8ohpmecq8l2,dAlXHsDS,2020-0188,2020-06-04,10:36:52,10:56:47,NA,incomplete,70,color,1,1,right,Blue_Plus_Chess_1.jpg,Green_Plus_Stripes_2.jpg,Blue_Circle_Grid_4.jpg,left,1089.2449999810196,false,high,NA,NA,NA,NA,NA,NA,NA,false
dAlXHsDS,3headtgn3s5yqh3y5nncdnm28bcvrm,3x3or7wpz3drzra2jck8ohpmecq8l2,dAlXHsDS,2020-0188,2020-06-04,10:36:52,10:56:47,NA,incomplete,71,color,1,1,right,Purple_Circle_Grid_1.jpg,Blue_Circle_Stripes_4.jpg,Purple_Triangle_Dots_3.jpg,left,929.3349999934435,false,high,NA,NA,NA,NA,NA,NA,NA,false
dAlXHsDS,3headtgn3s5yqh3y5nncdnm28bcvrm,3x3or7wpz3drzra2jck8ohpmecq8l2,dAlXHsDS,2020-0188,2020-06-04,10:36:52,10:56:47,NA,incomplete,72,color,1,1,left,Purple_Plus_Chess_4.jpg,Purple_Triangle_Stripes_2.jpg,Red_Plus_Dots_1.jpg,left,712.9349999886472,true,high,NA,NA,NA,NA,NA,NA,NA,false
dAlXHsDS,3headtgn3s5yqh3y5nncdnm28bcvrm,3x3or7wpz3drzra2jck8ohpmecq8l2,dAlXHsDS,2020-0188,2020-06-04,10:36:52,10:56:47,NA,incomplete,73,color,1,0,left,Green_Star_Dots_3.jpg,Green_Plus_Stripes_4.jpg,Purple_Star_Grid_2.jpg,left,488.21499999030493,true,high,NA,NA,NA,NA,NA,NA,NA,false
dAlXHsDS,3headtgn3s5yqh3y5nncdnm28bcvrm,3x3or7wpz3drzra2jck8ohpmecq8l2,dAlXHsDS,2020-0188,2020-06-04,10:36:52,10:56:47,NA,incomplete,74,color,1,1,right,Green_Triangle_Stripes_4.jpg,Blue_Triangle_Chess_1.jpg,Green_Star_Dots_2.jpg,right,527.2850000183098,true,high,NA,NA,NA,NA,NA,NA,NA,false
dAlXHsDS,3headtgn3s5yqh3y5nncdnm28bcvrm,3x3or7wpz3drzra2jck8ohpmecq8l2,dAlXHsDS,2020-0188,2020-06-04,10:36:52,10:56:47,NA,incomplete,75,color,1,0,right,Blue_Circle_Stripes_3.jpg,Green_Circle_Chess_4.jpg,Blue_Star_Grid_2.jpg,right,1062.405000004219,true,high,NA,NA,NA,NA,NA,NA,NA,false
dAlXHsDS,3headtgn3s5yqh3y5nncdnm28bcvrm,3x3or7wpz3drzra2jck8ohpmecq8l2,dAlXHsDS,2020-0188,2020-06-04,10:36:52,10:56:47,NA,incomplete,76,color,1,1,left,Green_Triangle_Chess_4.jpg,Green_Circle_Stripes_2.jpg,Blue_Triangle_Dots_3.jpg,left,865.4649999807589,true,high,NA,NA,NA,NA,NA,NA,NA,false
dAlXHsDS,3headtgn3s5yqh3y5nncdnm28bcvrm,3x3or7wpz3drzra2jck8ohpmecq8l2,dAlXHsDS,2020-0188,2020-06-04,10:36:52,10:56:47,NA,incomplete,77,color,1,1,right,Green_Circle_Chess_1.jpg,Purple_Circle_Stripes_4.jpg,Green_Triangle_Dots_2.jpg,right,911.5149999852292,true,high,NA,NA,NA,NA,NA,NA,NA,false
dAlXHsDS,3headtgn3s5yqh3y5nncdnm28bcvrm,3x3or7wpz3drzra2jck8ohpmecq8l2,dAlXHsDS,2020-0188,2020-06-04,10:36:52,10:56:47,NA,incomplete,78,color,1,1,left,Purple_Plus_Dots_4.jpg,Purple_Triangle_Grid_3.jpg,Red_Plus_Stripes_2.jpg,left,573.2799999823328,true,high,NA,NA,NA,NA,NA,NA,NA,false
dAlXHsDS,3headtgn3s5yqh3y5nncdnm28bcvrm,3x3or7wpz3drzra2jck8ohpmecq8l2,dAlXHsDS,2020-0188,2020-06-04,10:36:52,10:56:47,NA,incomplete,79,color,1,1,right,Green_Star_Dots_3.jpg,Red_Star_Stripes_1.jpg,Green_Plus_Chess_4.jpg,right,706.1999999859836,true,high,NA,NA,NA,NA,NA,NA,NA,false
dAlXHsDS,3headtgn3s5yqh3y5nncdnm28bcvrm,3x3or7wpz3drzra2jck8ohpmecq8l2,dAlXHsDS,2020-0188,2020-06-04,10:36:52,10:56:47,NA,incomplete,80,shape,0,0,right,Green_Plus_Dots_1.jpg,Green_Star_Stripes_3.jpg,Red_Plus_Grid_2.jpg,left,685.9699999913573,false,high,NA,NA,NA,NA,NA,NA,NA,false
dAlXHsDS,3headtgn3s5yqh3y5nncdnm28bcvrm,3x3or7wpz3drzra2jck8ohpmecq8l2,dAlXHsDS,2020-0188,2020-06-04,10:36:52,10:56:47,NA,incomplete,81,shape,0,1,right,Red_Triangle_Chess_1.jpg,Red_Star_Dots_4.jpg,Green_Triangle_Grid_2.jpg,left,488.229999988107,false,high,NA,NA,NA,NA,NA,NA,NA,false
dAlXHsDS,3headtgn3s5yqh3y5nncdnm28bcvrm,3x3or7wpz3drzra2jck8ohpmecq8l2,dAlXHsDS,2020-0188,2020-06-04,10:36:52,10:56:47,NA,incomplete,82,shape,0,1,right,Blue_Plus_Chess_2.jpg,Blue_Triangle_Stripes_1.jpg,Green_Plus_Dots_4.jpg,left,810.9450000047218,false,high,NA,NA,NA,NA,NA,NA,NA,false
dAlXHsDS,3headtgn3s5yqh3y5nncdnm28bcvrm,3x3or7wpz3drzra2jck8ohpmecq8l2,dAlXHsDS,2020-0188,2020-06-04,10:36:52,10:56:47,NA,incomplete,83,shape,0,1,left,Green_Circle_Chess_2.jpg,Purple_Circle_Dots_3.jpg,Green_Star_Grid_4.jpg,left,615.0900000066031,true,high,NA,NA,NA,NA,NA,NA,NA,false
dAlXHsDS,3headtgn3s5yqh3y5nncdnm28bcvrm,3x3or7wpz3drzra2jck8ohpmecq8l2,dAlXHsDS,2020-0188,2020-06-04,10:36:52,10:56:47,NA,incomplete,84,shape,0,1,right,Purple_Plus_Chess_2.jpg,Purple_Triangle_Dots_4.jpg,Green_Plus_Grid_3.jpg,right,1037.5749999948312,true,high,NA,NA,NA,NA,NA,NA,NA,false
dAlXHsDS,3headtgn3s5yqh3y5nncdnm28bcvrm,3x3or7wpz3drzra2jck8ohpmecq8l2,dAlXHsDS,2020-0188,2020-06-04,10:36:52,10:56:47,NA,incomplete,85,shape,0,1,right,Red_Circle_Dots_2.jpg,Red_Plus_Chess_3.jpg,Green_Circle_Grid_4.jpg,right,771.1249999993015,true,high,NA,NA,NA,NA,NA,NA,NA,false
dAlXHsDS,3headtgn3s5yqh3y5nncdnm28bcvrm,3x3or7wpz3drzra2jck8ohpmecq8l2,dAlXHsDS,2020-0188,2020-06-04,10:36:52,10:56:47,NA,incomplete,86,shape,0,1,right,Purple_Star_Dots_4.jpg,Purple_Plus_Stripes_2.jpg,Blue_Star_Chess_3.jpg,left,527.3250000027474,false,high,NA,NA,NA,NA,NA,NA,NA,false
dAlXHsDS,3headtgn3s5yqh3y5nncdnm28bcvrm,3x3or7wpz3drzra2jck8ohpmecq8l2,dAlXHsDS,2020-0188,2020-06-04,10:36:52,10:56:47,NA,incomplete,87,shape,0,1,left,Green_Triangle_Chess_1.jpg,Blue_Triangle_Stripes_2.jpg,Green_Star_Grid_4.jpg,left,689.9849999754224,true,high,NA,NA,NA,NA,NA,NA,NA,false
dAlXHsDS,3headtgn3s5yqh3y5nncdnm28bcvrm,3x3or7wpz3drzra2jck8ohpmecq8l2,dAlXHsDS,2020-0188,2020-06-04,10:36:52,10:56:47,NA,incomplete,88,shape,0,1,right,Green_Plus_Stripes_1.jpg,Green_Star_Dots_3.jpg,Purple_Plus_Chess_4.jpg,right,694.6900000039022,true,high,NA,NA,NA,NA,NA,NA,NA,false
dAlXHsDS,3headtgn3s5yqh3y5nncdnm28bcvrm,3x3or7wpz3drzra2jck8ohpmecq8l2,dAlXHsDS,2020-0188,2020-06-04,10:36:52,10:56:47,NA,incomplete,89,shape,0,1,right,Blue_Plus_Chess_2.jpg,Blue_Triangle_Grid_1.jpg,Green_Plus_Dots_4.jpg,right,853.2750000013039,true,high,NA,NA,NA,NA,NA,NA,NA,false
dAlXHsDS,3headtgn3s5yqh3y5nncdnm28bcvrm,3x3or7wpz3drzra2jck8ohpmecq8l2,dAlXHsDS,2020-0188,2020-06-04,10:36:52,10:56:47,NA,incomplete,90,color,1,1,left,Red_Circle_Stripes_3.jpg,Red_Triangle_Dots_2.jpg,Green_Circle_Grid_1.jpg,right,1038.1000000052154,false,high,NA,NA,NA,NA,NA,NA,NA,false
dAlXHsDS,3headtgn3s5yqh3y5nncdnm28bcvrm,3x3or7wpz3drzra2jck8ohpmecq8l2,dAlXHsDS,2020-0188,2020-06-04,10:36:52,10:56:47,NA,incomplete,91,color,1,1,right,Blue_Star_Grid_4.jpg,Purple_Star_Stripes_2.jpg,Blue_Circle_Chess_3.jpg,left,730.7699999946635,false,high,NA,NA,NA,NA,NA,NA,NA,false
dAlXHsDS,3headtgn3s5yqh3y5nncdnm28bcvrm,3x3or7wpz3drzra2jck8ohpmecq8l2,dAlXHsDS,2020-0188,2020-06-04,10:36:52,10:56:47,NA,incomplete,92,color,1,1,right,Blue_Plus_Grid_1.jpg,Red_Plus_Stripes_2.jpg,Blue_Circle_Chess_4.jpg,right,557.7549999870826,true,high,NA,NA,NA,NA,NA,NA,NA,false
dAlXHsDS,3headtgn3s5yqh3y5nncdnm28bcvrm,3x3or7wpz3drzra2jck8ohpmecq8l2,dAlXHsDS,2020-0188,2020-06-04,10:36:52,10:56:47,NA,incomplete,93,color,1,0,right,Red_Plus_Chess_2.jpg,Green_Plus_Dots_1.jpg,Red_Circle_Grid_4.jpg,left,1487.4500000150874,false,high,NA,NA,NA,NA,NA,NA,NA,false
dAlXHsDS,3headtgn3s5yqh3y5nncdnm28bcvrm,3x3or7wpz3drzra2jck8ohpmecq8l2,dAlXHsDS,2020-0188,2020-06-04,10:36:52,10:56:47,NA,incomplete,94,color,1,0,left,Blue_Plus_Chess_3.jpg,Blue_Triangle_Stripes_2.jpg,Red_Plus_Grid_1.jpg,left,865.2850000071339,true,high,NA,NA,NA,NA,NA,NA,NA,false
dAlXHsDS,3headtgn3s5yqh3y5nncdnm28bcvrm,3x3or7wpz3drzra2jck8ohpmecq8l2,dAlXHsDS,2020-0188,2020-06-04,10:36:52,10:56:47,NA,incomplete,95,color,1,1,right,Purple_Plus_Dots_3.jpg,Red_Plus_Stripes_4.jpg,Purple_Star_Chess_2.jpg,right,1243.9850000082515,true,high,NA,NA,NA,NA,NA,NA,NA,false
dAlXHsDS,3headtgn3s5yqh3y5nncdnm28bcvrm,3x3or7wpz3drzra2jck8ohpmecq8l2,dAlXHsDS,2020-0188,2020-06-04,10:36:52,10:56:47,NA,incomplete,96,color,1,1,right,Red_Triangle_Stripes_2.jpg,Blue_Triangle_Grid_4.jpg,Red_Plus_Chess_3.jpg,right,684.1399999975692,true,high,NA,NA,NA,NA,NA,NA,NA,false
dAlXHsDS,3headtgn3s5yqh3y5nncdnm28bcvrm,3x3or7wpz3drzra2jck8ohpmecq8l2,dAlXHsDS,2020-0188,2020-06-04,10:36:52,10:56:47,NA,incomplete,97,color,1,1,right,Green_Circle_Dots_2.jpg,Purple_Circle_Stripes_1.jpg,Green_Star_Chess_4.jpg,right,518.2649999915157,true,high,NA,NA,NA,NA,NA,NA,NA,false
dAlXHsDS,3headtgn3s5yqh3y5nncdnm28bcvrm,3x3or7wpz3drzra2jck8ohpmecq8l2,dAlXHsDS,2020-0188,2020-06-04,10:36:52,10:56:47,NA,incomplete,98,color,1,1,right,Green_Plus_Dots_4.jpg,Red_Plus_Stripes_3.jpg,Green_Triangle_Chess_1.jpg,right,912.1000000159256,true,high,NA,NA,NA,NA,NA,NA,NA,false
dAlXHsDS,3headtgn3s5yqh3y5nncdnm28bcvrm,3x3or7wpz3drzra2jck8ohpmecq8l2,dAlXHsDS,2020-0188,2020-06-04,10:36:52,10:56:47,NA,incomplete,99,color,1,1,left,Green_Plus_Grid_2.jpg,Green_Circle_Dots_1.jpg,Purple_Plus_Chess_3.jpg,left,578.9499999955297,true,high,NA,NA,NA,NA,NA,NA,NA,false
dAlXHsDS,3headtgn3s5yqh3y5nncdnm28bcvrm,3x3or7wpz3drzra2jck8ohpmecq8l2,dAlXHsDS,2020-0188,2020-06-04,10:36:52,10:56:47,NA,incomplete,100,shape,0,1,left,Purple_Triangle_Stripes_3.jpg,Blue_Triangle_Grid_2.jpg,Purple_Star_Dots_1.jpg,right,546.3999999919906,false,high,NA,NA,NA,NA,NA,NA,NA,false
dAlXHsDS,3headtgn3s5yqh3y5nncdnm28bcvrm,3x3or7wpz3drzra2jck8ohpmecq8l2,dAlXHsDS,2020-0188,2020-06-04,10:36:52,10:56:47,NA,incomplete,101,shape,0,1,left,Blue_Circle_Dots_3.jpg,Red_Circle_Chess_2.jpg,Blue_Star_Stripes_1.jpg,right,468.2650000031572,false,high,NA,NA,NA,NA,NA,NA,NA,false
dAlXHsDS,3headtgn3s5yqh3y5nncdnm28bcvrm,3x3or7wpz3drzra2jck8ohpmecq8l2,dAlXHsDS,2020-0188,2020-06-04,10:36:52,10:56:47,NA,incomplete,102,shape,0,1,right,Blue_Star_Dots_4.jpg,Blue_Triangle_Grid_2.jpg,Green_Star_Stripes_1.jpg,right,597.4149999965448,true,high,NA,NA,NA,NA,NA,NA,NA,false
dAlXHsDS,3headtgn3s5yqh3y5nncdnm28bcvrm,3x3or7wpz3drzra2jck8ohpmecq8l2,dAlXHsDS,2020-0188,2020-06-04,10:36:52,10:56:47,NA,incomplete,103,shape,0,1,right,Green_Triangle_Stripes_1.jpg,Green_Star_Grid_3.jpg,Blue_Triangle_Chess_2.jpg,right,845.0750000192784,true,high,NA,NA,NA,NA,NA,NA,NA,false
dAlXHsDS,3headtgn3s5yqh3y5nncdnm28bcvrm,3x3or7wpz3drzra2jck8ohpmecq8l2,dAlXHsDS,2020-0188,2020-06-04,10:36:52,10:56:47,NA,incomplete,104,shape,0,0,right,Red_Star_Grid_2.jpg,Red_Triangle_Chess_3.jpg,Blue_Star_Dots_4.jpg,right,784.2349999991711,true,high,NA,NA,NA,NA,NA,NA,NA,false
dAlXHsDS,3headtgn3s5yqh3y5nncdnm28bcvrm,3x3or7wpz3drzra2jck8ohpmecq8l2,dAlXHsDS,2020-0188,2020-06-04,10:36:52,10:56:47,NA,incomplete,105,shape,0,0,left,Purple_Triangle_Stripes_1.jpg,Red_Triangle_Dots_4.jpg,Purple_Star_Chess_2.jpg,left,788.5999999998603,true,high,NA,NA,NA,NA,NA,NA,NA,false
dAlXHsDS,3headtgn3s5yqh3y5nncdnm28bcvrm,3x3or7wpz3drzra2jck8ohpmecq8l2,dAlXHsDS,2020-0188,2020-06-04,10:36:52,10:56:47,NA,incomplete,106,shape,0,1,right,Green_Star_Dots_4.jpg,Green_Plus_Chess_3.jpg,Blue_Star_Stripes_2.jpg,left,621.8900000094436,false,high,NA,NA,NA,NA,NA,NA,NA,false
dAlXHsDS,3headtgn3s5yqh3y5nncdnm28bcvrm,3x3or7wpz3drzra2jck8ohpmecq8l2,dAlXHsDS,2020-0188,2020-06-04,10:36:52,10:56:47,NA,incomplete,107,shape,0,1,right,Blue_Star_Stripes_1.jpg,Blue_Triangle_Dots_3.jpg,Green_Star_Grid_2.jpg,right,815.1200000138488,true,high,NA,NA,NA,NA,NA,NA,NA,false
dAlXHsDS,3headtgn3s5yqh3y5nncdnm28bcvrm,3x3or7wpz3drzra2jck8ohpmecq8l2,dAlXHsDS,2020-0188,2020-06-04,10:36:52,10:56:47,NA,incomplete,108,shape,0,1,left,Green_Star_Grid_3.jpg,Red_Star_Dots_1.jpg,Green_Plus_Stripes_2.jpg,left,847.2250000049826,true,high,NA,NA,NA,NA,NA,NA,NA,false
dAlXHsDS,3headtgn3s5yqh3y5nncdnm28bcvrm,3x3or7wpz3drzra2jck8ohpmecq8l2,dAlXHsDS,2020-0188,2020-06-04,10:36:52,10:56:47,NA,incomplete,109,shape,0,1,right,Purple_Plus_Grid_4.jpg,Purple_Circle_Stripes_3.jpg,Blue_Plus_Chess_2.jpg,right,592.2199999913573,true,high,NA,NA,NA,NA,NA,NA,NA,false
dAlXHsDS,3headtgn3s5yqh3y5nncdnm28bcvrm,3x3or7wpz3drzra2jck8ohpmecq8l2,dAlXHsDS,2020-0188,2020-06-04,10:36:52,10:56:47,NA,incomplete,110,color,1,1,right,Green_Circle_Chess_4.jpg,Blue_Circle_Dots_2.jpg,Green_Plus_Grid_1.jpg,left,1115.8249999862164,false,high,NA,NA,NA,NA,NA,NA,NA,false
dAlXHsDS,3headtgn3s5yqh3y5nncdnm28bcvrm,3x3or7wpz3drzra2jck8ohpmecq8l2,dAlXHsDS,2020-0188,2020-06-04,10:36:52,10:56:47,NA,incomplete,111,color,1,0,left,Purple_Plus_Dots_1.jpg,Purple_Star_Grid_3.jpg,Blue_Plus_Chess_4.jpg,right,721.9650000042748,false,high,NA,NA,NA,NA,NA,NA,NA,false
dAlXHsDS,3headtgn3s5yqh3y5nncdnm28bcvrm,3x3or7wpz3drzra2jck8ohpmecq8l2,dAlXHsDS,2020-0188,2020-06-04,10:36:52,10:56:47,NA,incomplete,112,color,1,1,right,Purple_Circle_Grid_4.jpg,Red_Circle_Dots_3.jpg,Purple_Plus_Stripes_2.jpg,left,760.8950000139885,false,high,NA,NA,NA,NA,NA,NA,NA,false
dAlXHsDS,3headtgn3s5yqh3y5nncdnm28bcvrm,3x3or7wpz3drzra2jck8ohpmecq8l2,dAlXHsDS,2020-0188,2020-06-04,10:36:52,10:56:47,NA,incomplete,113,color,1,0,right,Green_Plus_Dots_1.jpg,Red_Plus_Chess_4.jpg,Green_Star_Grid_3.jpg,right,480.5800000031013,true,high,NA,NA,NA,NA,NA,NA,NA,false
dAlXHsDS,3headtgn3s5yqh3y5nncdnm28bcvrm,3x3or7wpz3drzra2jck8ohpmecq8l2,dAlXHsDS,2020-0188,2020-06-04,10:36:52,10:56:47,NA,incomplete,114,color,1,1,right,Blue_Circle_Stripes_2.jpg,Purple_Circle_Chess_1.jpg,Blue_Plus_Dots_4.jpg,left,941.4350000151899,false,high,NA,NA,NA,NA,NA,NA,NA,false
dAlXHsDS,3headtgn3s5yqh3y5nncdnm28bcvrm,3x3or7wpz3drzra2jck8ohpmecq8l2,dAlXHsDS,2020-0188,2020-06-04,10:36:52,10:56:47,NA,incomplete,115,color,1,1,left,Purple_Triangle_Stripes_1.jpg,Purple_Star_Grid_3.jpg,Red_Triangle_Dots_4.jpg,left,802.4600000062492,true,high,NA,NA,NA,NA,NA,NA,NA,false
dAlXHsDS,3headtgn3s5yqh3y5nncdnm28bcvrm,3x3or7wpz3drzra2jck8ohpmecq8l2,dAlXHsDS,2020-0188,2020-06-04,10:36:52,10:56:47,NA,incomplete,116,color,1,1,left,Green_Star_Dots_4.jpg,Green_Plus_Chess_1.jpg,Red_Star_Stripes_3.jpg,left,567.9700000036974,true,high,NA,NA,NA,NA,NA,NA,NA,false
dAlXHsDS,3headtgn3s5yqh3y5nncdnm28bcvrm,3x3or7wpz3drzra2jck8ohpmecq8l2,dAlXHsDS,2020-0188,2020-06-04,10:36:52,10:56:47,NA,incomplete,117,color,1,0,right,Blue_Circle_Grid_4.jpg,Green_Circle_Chess_3.jpg,Blue_Star_Dots_1.jpg,right,1027.46000001207,true,high,NA,NA,NA,NA,NA,NA,NA,false
dAlXHsDS,3headtgn3s5yqh3y5nncdnm28bcvrm,3x3or7wpz3drzra2jck8ohpmecq8l2,dAlXHsDS,2020-0188,2020-06-04,10:36:52,10:56:47,NA,incomplete,118,color,1,1,right,Green_Plus_Stripes_1.jpg,Blue_Plus_Dots_4.jpg,Green_Circle_Chess_2.jpg,right,703.7200000195298,true,high,NA,NA,NA,NA,NA,NA,NA,false
dAlXHsDS,3headtgn3s5yqh3y5nncdnm28bcvrm,3x3or7wpz3drzra2jck8ohpmecq8l2,dAlXHsDS,2020-0188,2020-06-04,10:36:52,10:56:47,NA,incomplete,119,color,1,0,left,Purple_Triangle_Chess_1.jpg,Purple_Star_Grid_4.jpg,Green_Triangle_Dots_3.jpg,left,760.0950000050943,true,high,NA,NA,NA,NA,NA,NA,NA,false
dAlXHsDS,3headtgn3s5yqh3y5nncdnm28bcvrm,3x3or7wpz3drzra2jck8ohpmecq8l2,dAlXHsDS,2020-0188,2020-06-04,10:36:52,10:56:47,NA,incomplete,120,race,2,1,right,C_F_11.jpg,A_F_06.jpg,C_M_05.jpg,NA,NA,NA,high,NA,NA,NA,NA,NA,NA,NA,false
dAlXHsDS,3headtgn3s5yqh3y5nncdnm28bcvrm,3x3or7wpz3drzra2jck8ohpmecq8l2,dAlXHsDS,2020-0188,2020-06-04,10:36:52,10:56:47,NA,incomplete,121,race,2,1,left,C_F_14.jpg,C_M_06.jpg,A_F_15.jpg,left,1378.244999999879,true,high,NA,NA,NA,NA,NA,NA,NA,false
dAlXHsDS,3headtgn3s5yqh3y5nncdnm28bcvrm,3x3or7wpz3drzra2jck8ohpmecq8l2,dAlXHsDS,2020-0188,2020-06-04,10:36:52,10:56:47,NA,incomplete,122,race,2,0,left,A_F_06.jpg,A_M_12.jpg,C_F_04.jpg,left,1409.7850000252947,true,high,NA,NA,NA,NA,NA,NA,NA,false
dAlXHsDS,3headtgn3s5yqh3y5nncdnm28bcvrm,3x3or7wpz3drzra2jck8ohpmecq8l2,dAlXHsDS,2020-0188,2020-06-04,10:36:52,10:56:47,NA,incomplete,123,race,2,1,left,A_M_11.jpg,A_F_05.jpg,C_M_13.jpg,right,1569.00499999756,false,high,NA,NA,NA,NA,NA,NA,NA,false
dAlXHsDS,3headtgn3s5yqh3y5nncdnm28bcvrm,3x3or7wpz3drzra2jck8ohpmecq8l2,dAlXHsDS,2020-0188,2020-06-04,10:36:52,10:56:47,NA,incomplete,124,race,2,1,right,C_M_13.jpg,A_M_04.jpg,C_F_16.jpg,right,925.4350000119302,true,high,NA,NA,NA,NA,NA,NA,NA,false
dAlXHsDS,3headtgn3s5yqh3y5nncdnm28bcvrm,3x3or7wpz3drzra2jck8ohpmecq8l2,dAlXHsDS,2020-0188,2020-06-04,10:36:52,10:56:47,NA,incomplete,125,race,2,1,left,A_F_07.jpg,A_M_11.jpg,C_F_02.jpg,right,1111.3100000075065,false,high,NA,NA,NA,NA,NA,NA,NA,false
dAlXHsDS,3headtgn3s5yqh3y5nncdnm28bcvrm,3x3or7wpz3drzra2jck8ohpmecq8l2,dAlXHsDS,2020-0188,2020-06-04,10:36:52,10:56:47,NA,incomplete,126,race,2,1,right,A_F_03.jpg,C_F_05.jpg,A_M_16.jpg,left,1785.055000014836,false,high,NA,NA,NA,NA,NA,NA,NA,false
dAlXHsDS,3headtgn3s5yqh3y5nncdnm28bcvrm,3x3or7wpz3drzra2jck8ohpmecq8l2,dAlXHsDS,2020-0188,2020-06-04,10:36:52,10:56:47,NA,incomplete,127,race,2,0,right,C_F_10.jpg,A_F_09.jpg,C_M_04.jpg,left,1112.7599999890663,false,high,NA,NA,NA,NA,NA,NA,NA,false
dAlXHsDS,3headtgn3s5yqh3y5nncdnm28bcvrm,3x3or7wpz3drzra2jck8ohpmecq8l2,dAlXHsDS,2020-0188,2020-06-04,10:36:52,10:56:47,NA,incomplete,128,race,2,1,right,C_M_10.jpg,A_M_12.jpg,C_F_02.jpg,right,1445.7349999865983,true,high,NA,NA,NA,NA,NA,NA,NA,false
dAlXHsDS,3headtgn3s5yqh3y5nncdnm28bcvrm,3x3or7wpz3drzra2jck8ohpmecq8l2,dAlXHsDS,2020-0188,2020-06-04,10:36:52,10:56:47,NA,incomplete,129,race,2,1,right,C_M_01.jpg,A_M_11.jpg,C_F_15.jpg,left,1292.875000013737,false,high,NA,NA,NA,NA,NA,NA,NA,false
dAlXHsDS,3headtgn3s5yqh3y5nncdnm28bcvrm,3x3or7wpz3drzra2jck8ohpmecq8l2,dAlXHsDS,2020-0188,2020-06-04,10:36:52,10:56:47,NA,incomplete,130,race,2,1,right,C_F_03.jpg,A_F_12.jpg,C_M_08.jpg,right,865.7949999906123,true,high,NA,NA,NA,NA,NA,NA,NA,false
dAlXHsDS,3headtgn3s5yqh3y5nncdnm28bcvrm,3x3or7wpz3drzra2jck8ohpmecq8l2,dAlXHsDS,2020-0188,2020-06-04,10:36:52,10:56:47,NA,incomplete,131,race,2,0,left,A_M_07.jpg,A_F_12.jpg,C_M_06.jpg,left,1427.2650000057183,true,high,NA,NA,NA,NA,NA,NA,NA,false
dAlXHsDS,3headtgn3s5yqh3y5nncdnm28bcvrm,3x3or7wpz3drzra2jck8ohpmecq8l2,dAlXHsDS,2020-0188,2020-06-04,10:36:52,10:56:47,NA,incomplete,132,race,2,1,right,A_F_10.jpg,C_F_03.jpg,A_M_07.jpg,right,1154.3999999994412,true,high,NA,NA,NA,NA,NA,NA,NA,false
dAlXHsDS,3headtgn3s5yqh3y5nncdnm28bcvrm,3x3or7wpz3drzra2jck8ohpmecq8l2,dAlXHsDS,2020-0188,2020-06-04,10:36:52,10:56:47,NA,incomplete,133,race,2,0,right,C_F_02.jpg,A_F_03.jpg,C_M_05.jpg,left,924.975000001723,false,high,NA,NA,NA,NA,NA,NA,NA,false
dAlXHsDS,3headtgn3s5yqh3y5nncdnm28bcvrm,3x3or7wpz3drzra2jck8ohpmecq8l2,dAlXHsDS,2020-0188,2020-06-04,10:36:52,10:56:47,NA,incomplete,134,race,2,1,right,A_M_07.jpg,C_M_14.jpg,A_F_04.jpg,none,0,false,high,NA,NA,NA,NA,NA,NA,NA,false
dAlXHsDS,3headtgn3s5yqh3y5nncdnm28bcvrm,3x3or7wpz3drzra2jck8ohpmecq8l2,dAlXHsDS,2020-0188,2020-06-04,10:36:52,10:56:47,NA,incomplete,135,race,2,1,right,C_F_04.jpg,A_F_09.jpg,C_M_08.jpg,right,1221.0000000195578,true,high,NA,NA,NA,NA,NA,NA,NA,false
dAlXHsDS,3headtgn3s5yqh3y5nncdnm28bcvrm,3x3or7wpz3drzra2jck8ohpmecq8l2,dAlXHsDS,2020-0188,2020-06-04,10:36:52,10:56:47,NA,incomplete,136,race,2,1,right,C_F_13.jpg,A_F_15.jpg,C_M_03.jpg,right,1278.3050000143703,true,high,NA,NA,NA,NA,NA,NA,NA,false
dAlXHsDS,3headtgn3s5yqh3y5nncdnm28bcvrm,3x3or7wpz3drzra2jck8ohpmecq8l2,dAlXHsDS,2020-0188,2020-06-04,10:36:52,10:56:47,NA,incomplete,137,race,2,1,left,A_M_06.jpg,A_F_02.jpg,C_M_07.jpg,left,1564.3250000139233,true,high,NA,NA,NA,NA,NA,NA,NA,false
dAlXHsDS,3headtgn3s5yqh3y5nncdnm28bcvrm,3x3or7wpz3drzra2jck8ohpmecq8l2,dAlXHsDS,2020-0188,2020-06-04,10:36:52,10:56:47,NA,incomplete,138,race,2,0,left,A_M_01.jpg,A_F_08.jpg,C_M_16.jpg,left,1000.0749999890104,true,high,NA,NA,NA,NA,NA,NA,NA,false
dAlXHsDS,3headtgn3s5yqh3y5nncdnm28bcvrm,3x3or7wpz3drzra2jck8ohpmecq8l2,dAlXHsDS,2020-0188,2020-06-04,10:36:52,10:56:47,NA,incomplete,139,race,2,1,right,C_M_04.jpg,A_M_15.jpg,C_F_10.jpg,right,1138.3050000004005,true,high,NA,NA,NA,NA,NA,NA,NA,false
dAlXHsDS,3headtgn3s5yqh3y5nncdnm28bcvrm,3x3or7wpz3drzra2jck8ohpmecq8l2,dAlXHsDS,2020-0188,2020-06-04,10:36:52,10:56:47,NA,incomplete,140,gender,3,0,left,A_M_05.jpg,C_M_01.jpg,A_F_06.jpg,left,1306.9700000050943,true,high,NA,NA,NA,NA,NA,NA,NA,false
dAlXHsDS,3headtgn3s5yqh3y5nncdnm28bcvrm,3x3or7wpz3drzra2jck8ohpmecq8l2,dAlXHsDS,2020-0188,2020-06-04,10:36:52,10:56:47,NA,incomplete,141,gender,3,1,left,A_M_04.jpg,C_M_02.jpg,A_F_10.jpg,left,1253.3100000000559,true,high,NA,NA,NA,NA,NA,NA,NA,false
dAlXHsDS,3headtgn3s5yqh3y5nncdnm28bcvrm,3x3or7wpz3drzra2jck8ohpmecq8l2,dAlXHsDS,2020-0188,2020-06-04,10:36:52,10:56:47,NA,incomplete,142,gender,3,1,right,C_M_06.jpg,C_F_12.jpg,A_M_05.jpg,right,1932.4499999929685,true,high,NA,NA,NA,NA,NA,NA,NA,false
dAlXHsDS,3headtgn3s5yqh3y5nncdnm28bcvrm,3x3or7wpz3drzra2jck8ohpmecq8l2,dAlXHsDS,2020-0188,2020-06-04,10:36:52,10:56:47,NA,incomplete,143,gender,3,1,left,C_F_06.jpg,A_F_01.jpg,C_M_05.jpg,right,1436.7700000002515,false,high,NA,NA,NA,NA,NA,NA,NA,false
dAlXHsDS,3headtgn3s5yqh3y5nncdnm28bcvrm,3x3or7wpz3drzra2jck8ohpmecq8l2,dAlXHsDS,2020-0188,2020-06-04,10:36:52,10:56:47,NA,incomplete,144,gender,3,0,right,A_M_05.jpg,A_F_10.jpg,C_M_11.jpg,left,1541.7249999882188,false,high,NA,NA,NA,NA,NA,NA,NA,false
dAlXHsDS,3headtgn3s5yqh3y5nncdnm28bcvrm,3x3or7wpz3drzra2jck8ohpmecq8l2,dAlXHsDS,2020-0188,2020-06-04,10:36:52,10:56:47,NA,incomplete,145,gender,3,1,left,A_F_07.jpg,C_F_03.jpg,A_M_16.jpg,left,965.2249999926426,true,high,NA,NA,NA,NA,NA,NA,NA,false
dAlXHsDS,3headtgn3s5yqh3y5nncdnm28bcvrm,3x3or7wpz3drzra2jck8ohpmecq8l2,dAlXHsDS,2020-0188,2020-06-04,10:36:52,10:56:47,NA,incomplete,146,gender,3,0,right,A_F_08.jpg,A_M_07.jpg,C_F_14.jpg,left,743.2200000039302,false,high,NA,NA,NA,NA,NA,NA,NA,false
dAlXHsDS,3headtgn3s5yqh3y5nncdnm28bcvrm,3x3or7wpz3drzra2jck8ohpmecq8l2,dAlXHsDS,2020-0188,2020-06-04,10:36:52,10:56:47,NA,incomplete,147,gender,3,1,left,A_M_06.jpg,C_M_08.jpg,A_F_09.jpg,left,840.8000000054017,true,high,NA,NA,NA,NA,NA,NA,NA,false
dAlXHsDS,3headtgn3s5yqh3y5nncdnm28bcvrm,3x3or7wpz3drzra2jck8ohpmecq8l2,dAlXHsDS,2020-0188,2020-06-04,10:36:52,10:56:47,NA,incomplete,148,gender,3,1,left,A_F_03.jpg,C_F_12.jpg,A_M_10.jpg,right,927.7949999959674,false,high,NA,NA,NA,NA,NA,NA,NA,false
dAlXHsDS,3headtgn3s5yqh3y5nncdnm28bcvrm,3x3or7wpz3drzra2jck8ohpmecq8l2,dAlXHsDS,2020-0188,2020-06-04,10:36:52,10:56:47,NA,incomplete,149,gender,3,1,right,A_F_06.jpg,A_M_14.jpg,C_F_10.jpg,right,1430.9450000000652,true,high,NA,NA,NA,NA,NA,NA,NA,false
dAlXHsDS,3headtgn3s5yqh3y5nncdnm28bcvrm,3x3or7wpz3drzra2jck8ohpmecq8l2,dAlXHsDS,2020-0188,2020-06-04,10:36:52,10:56:47,NA,incomplete,150,gender,3,0,right,A_F_13.jpg,A_M_07.jpg,C_F_12.jpg,left,1249.7399999992922,false,high,NA,NA,NA,NA,NA,NA,NA,false
dAlXHsDS,3headtgn3s5yqh3y5nncdnm28bcvrm,3x3or7wpz3drzra2jck8ohpmecq8l2,dAlXHsDS,2020-0188,2020-06-04,10:36:52,10:56:47,NA,incomplete,151,gender,3,1,left,C_F_05.jpg,A_F_02.jpg,C_M_01.jpg,right,944.4150000053924,false,high,NA,NA,NA,NA,NA,NA,NA,false
dAlXHsDS,3headtgn3s5yqh3y5nncdnm28bcvrm,3x3or7wpz3drzra2jck8ohpmecq8l2,dAlXHsDS,2020-0188,2020-06-04,10:36:52,10:56:47,NA,incomplete,152,gender,3,0,right,A_M_15.jpg,A_F_12.jpg,C_M_02.jpg,left,1407.9599999822676,false,high,NA,NA,NA,NA,NA,NA,NA,false
dAlXHsDS,3headtgn3s5yqh3y5nncdnm28bcvrm,3x3or7wpz3drzra2jck8ohpmecq8l2,dAlXHsDS,2020-0188,2020-06-04,10:36:52,10:56:47,NA,incomplete,153,gender,3,1,left,A_F_08.jpg,C_F_07.jpg,A_M_15.jpg,left,1145.0550000008661,true,high,NA,NA,NA,NA,NA,NA,NA,false
dAlXHsDS,3headtgn3s5yqh3y5nncdnm28bcvrm,3x3or7wpz3drzra2jck8ohpmecq8l2,dAlXHsDS,2020-0188,2020-06-04,10:36:52,10:56:47,NA,incomplete,154,gender,3,1,right,A_M_12.jpg,A_F_14.jpg,C_M_01.jpg,left,867.2450000012759,false,high,NA,NA,NA,NA,NA,NA,NA,false
dAlXHsDS,3headtgn3s5yqh3y5nncdnm28bcvrm,3x3or7wpz3drzra2jck8ohpmecq8l2,dAlXHsDS,2020-0188,2020-06-04,10:36:52,10:56:47,NA,incomplete,155,gender,3,1,right,A_M_13.jpg,A_F_02.jpg,C_M_08.jpg,left,1437.4399999796879,false,high,NA,NA,NA,NA,NA,NA,NA,false
dAlXHsDS,3headtgn3s5yqh3y5nncdnm28bcvrm,3x3or7wpz3drzra2jck8ohpmecq8l2,dAlXHsDS,2020-0188,2020-06-04,10:36:52,10:56:47,NA,incomplete,156,gender,3,1,right,C_F_11.jpg,C_M_02.jpg,A_F_09.jpg,right,1469.6500000136439,true,high,NA,NA,NA,NA,NA,NA,NA,false
dAlXHsDS,3headtgn3s5yqh3y5nncdnm28bcvrm,3x3or7wpz3drzra2jck8ohpmecq8l2,dAlXHsDS,2020-0188,2020-06-04,10:36:52,10:56:47,NA,incomplete,157,gender,3,1,left,C_M_01.jpg,A_M_04.jpg,C_F_08.jpg,right,872.4099999817554,false,high,NA,NA,NA,NA,NA,NA,NA,false
dAlXHsDS,3headtgn3s5yqh3y5nncdnm28bcvrm,3x3or7wpz3drzra2jck8ohpmecq8l2,dAlXHsDS,2020-0188,2020-06-04,10:36:52,10:56:47,NA,incomplete,158,gender,3,1,left,A_M_02.jpg,C_M_07.jpg,A_F_13.jpg,right,1232.095000013942,false,high,NA,NA,NA,NA,NA,NA,NA,false
dAlXHsDS,3headtgn3s5yqh3y5nncdnm28bcvrm,3x3or7wpz3drzra2jck8ohpmecq8l2,dAlXHsDS,2020-0188,2020-06-04,10:36:52,10:56:47,NA,incomplete,159,gender,3,0,left,A_M_04.jpg,C_M_10.jpg,A_F_12.jpg,left,1150.0550000055227,true,high,NA,NA,NA,NA,NA,NA,NA,false
dAlXHsDS,3headtgn3s5yqh3y5nncdnm28bcvrm,3x3or7wpz3drzra2jck8ohpmecq8l2,dAlXHsDS,2020-0188,2020-06-04,10:36:52,10:56:47,NA,incomplete,160,race,2,1,left,C_F_14.jpg,C_M_12.jpg,A_F_11.jpg,left,1071.204999985639,true,high,NA,NA,NA,NA,NA,NA,NA,false
dAlXHsDS,3headtgn3s5yqh3y5nncdnm28bcvrm,3x3or7wpz3drzra2jck8ohpmecq8l2,dAlXHsDS,2020-0188,2020-06-04,10:36:52,10:56:47,NA,incomplete,161,race,2,0,left,A_M_16.jpg,A_F_10.jpg,C_M_06.jpg,left,995.6050000037067,true,high,NA,NA,NA,NA,NA,NA,NA,false
dAlXHsDS,3headtgn3s5yqh3y5nncdnm28bcvrm,3x3or7wpz3drzra2jck8ohpmecq8l2,dAlXHsDS,2020-0188,2020-06-04,10:36:52,10:56:47,NA,incomplete,162,race,2,1,left,A_M_04.jpg,A_F_13.jpg,C_M_16.jpg,right,1071.3450000039302,false,high,NA,NA,NA,NA,NA,NA,NA,false
dAlXHsDS,3headtgn3s5yqh3y5nncdnm28bcvrm,3x3or7wpz3drzra2jck8ohpmecq8l2,dAlXHsDS,2020-0188,2020-06-04,10:36:52,10:56:47,NA,incomplete,163,race,2,1,right,A_M_10.jpg,C_M_02.jpg,A_F_05.jpg,right,1033.5550000017975,true,high,NA,NA,NA,NA,NA,NA,NA,false
dAlXHsDS,3headtgn3s5yqh3y5nncdnm28bcvrm,3x3or7wpz3drzra2jck8ohpmecq8l2,dAlXHsDS,2020-0188,2020-06-04,10:36:52,10:56:47,NA,incomplete,164,race,2,1,left,C_M_03.jpg,C_F_07.jpg,A_M_02.jpg,right,1370.8650000044145,false,high,NA,NA,NA,NA,NA,NA,NA,false
dAlXHsDS,3headtgn3s5yqh3y5nncdnm28bcvrm,3x3or7wpz3drzra2jck8ohpmecq8l2,dAlXHsDS,2020-0188,2020-06-04,10:36:52,10:56:47,NA,incomplete,165,race,2,1,right,C_M_07.jpg,A_M_06.jpg,C_F_10.jpg,right,952.6849999965634,true,high,NA,NA,NA,NA,NA,NA,NA,false
dAlXHsDS,3headtgn3s5yqh3y5nncdnm28bcvrm,3x3or7wpz3drzra2jck8ohpmecq8l2,dAlXHsDS,2020-0188,2020-06-04,10:36:52,10:56:47,NA,incomplete,166,race,2,1,right,A_M_12.jpg,C_M_03.jpg,A_F_04.jpg,left,1491.8349999934435,false,high,NA,NA,NA,NA,NA,NA,NA,false
dAlXHsDS,3headtgn3s5yqh3y5nncdnm28bcvrm,3x3or7wpz3drzra2jck8ohpmecq8l2,dAlXHsDS,2020-0188,2020-06-04,10:36:52,10:56:47,NA,incomplete,167,race,2,1,left,C_F_04.jpg,C_M_08.jpg,A_F_15.jpg,right,1143.9149999932852,false,high,NA,NA,NA,NA,NA,NA,NA,false
dAlXHsDS,3headtgn3s5yqh3y5nncdnm28bcvrm,3x3or7wpz3drzra2jck8ohpmecq8l2,dAlXHsDS,2020-0188,2020-06-04,10:36:52,10:56:47,NA,incomplete,168,race,2,1,right,A_M_07.jpg,C_M_12.jpg,A_F_05.jpg,left,997.0150000008289,false,high,NA,NA,NA,NA,NA,NA,NA,false
dAlXHsDS,3headtgn3s5yqh3y5nncdnm28bcvrm,3x3or7wpz3drzra2jck8ohpmecq8l2,dAlXHsDS,2020-0188,2020-06-04,10:36:52,10:56:47,NA,incomplete,169,race,2,1,right,C_M_07.jpg,A_M_04.jpg,C_F_06.jpg,left,255.8699999935925,false,high,NA,NA,NA,NA,NA,NA,NA,false
dAlXHsDS,3headtgn3s5yqh3y5nncdnm28bcvrm,3x3or7wpz3drzra2jck8ohpmecq8l2,dAlXHsDS,2020-0188,2020-06-04,10:36:52,10:56:47,NA,incomplete,170,race,2,1,left,A_F_11.jpg,A_M_16.jpg,C_F_06.jpg,right,1092.0200000109617,false,high,NA,NA,NA,NA,NA,NA,NA,false
dAlXHsDS,3headtgn3s5yqh3y5nncdnm28bcvrm,3x3or7wpz3drzra2jck8ohpmecq8l2,dAlXHsDS,2020-0188,2020-06-04,10:36:52,10:56:47,NA,incomplete,171,race,2,0,left,C_F_11.jpg,C_M_09.jpg,A_F_16.jpg,right,267.74000001023524,false,high,NA,NA,NA,NA,NA,NA,NA,false
dAlXHsDS,3headtgn3s5yqh3y5nncdnm28bcvrm,3x3or7wpz3drzra2jck8ohpmecq8l2,dAlXHsDS,2020-0188,2020-06-04,10:36:52,10:56:47,NA,incomplete,172,race,2,1,left,A_F_06.jpg,A_M_03.jpg,C_F_14.jpg,right,401.07500000158325,false,high,NA,NA,NA,NA,NA,NA,NA,false
dAlXHsDS,3headtgn3s5yqh3y5nncdnm28bcvrm,3x3or7wpz3drzra2jck8ohpmecq8l2,dAlXHsDS,2020-0188,2020-06-04,10:36:52,10:56:47,NA,incomplete,173,race,2,1,left,A_M_13.jpg,A_F_05.jpg,C_M_01.jpg,right,402.00000000186265,false,high,NA,NA,NA,NA,NA,NA,NA,false
dAlXHsDS,3headtgn3s5yqh3y5nncdnm28bcvrm,3x3or7wpz3drzra2jck8ohpmecq8l2,dAlXHsDS,2020-0188,2020-06-04,10:36:52,10:56:47,NA,incomplete,174,race,2,1,right,A_F_10.jpg,C_F_11.jpg,A_M_14.jpg,left,522.5599999830592,false,high,NA,NA,NA,NA,NA,NA,NA,false
dAlXHsDS,3headtgn3s5yqh3y5nncdnm28bcvrm,3x3or7wpz3drzra2jck8ohpmecq8l2,dAlXHsDS,2020-0188,2020-06-04,10:36:52,10:56:47,NA,incomplete,175,race,2,0,left,C_F_08.jpg,C_M_09.jpg,A_F_11.jpg,left,245.40499999420717,true,high,NA,NA,NA,NA,NA,NA,NA,false
dAlXHsDS,3headtgn3s5yqh3y5nncdnm28bcvrm,3x3or7wpz3drzra2jck8ohpmecq8l2,dAlXHsDS,2020-0188,2020-06-04,10:36:52,10:56:47,NA,incomplete,176,race,2,1,left,A_F_04.jpg,A_M_01.jpg,C_F_08.jpg,left,145.75499997590668,true,high,NA,NA,NA,NA,NA,NA,NA,false
dAlXHsDS,3headtgn3s5yqh3y5nncdnm28bcvrm,3x3or7wpz3drzra2jck8ohpmecq8l2,dAlXHsDS,2020-0188,2020-06-04,10:36:52,10:56:47,NA,incomplete,177,race,2,0,left,A_F_01.jpg,A_M_11.jpg,C_F_16.jpg,left,1420.6300000078045,true,high,NA,NA,NA,NA,NA,NA,NA,false
dAlXHsDS,3headtgn3s5yqh3y5nncdnm28bcvrm,3x3or7wpz3drzra2jck8ohpmecq8l2,dAlXHsDS,2020-0188,2020-06-04,10:36:52,10:56:47,NA,incomplete,178,race,2,1,left,A_F_15.jpg,A_M_05.jpg,C_F_12.jpg,left,1153.35999999661,true,high,NA,NA,NA,NA,NA,NA,NA,false
dAlXHsDS,3headtgn3s5yqh3y5nncdnm28bcvrm,3x3or7wpz3drzra2jck8ohpmecq8l2,dAlXHsDS,2020-0188,2020-06-04,10:36:52,10:56:47,NA,incomplete,179,race,2,0,right,A_F_06.jpg,C_F_13.jpg,A_M_08.jpg,right,999.9499999976251,true,high,NA,NA,NA,NA,NA,NA,NA,false
dAlXHsDS,3headtgn3s5yqh3y5nncdnm28bcvrm,3x3or7wpz3drzra2jck8ohpmecq8l2,dAlXHsDS,2020-0188,2020-06-04,10:36:52,10:56:47,NA,incomplete,180,gender,3,1,right,A_M_01.jpg,A_F_10.jpg,C_M_14.jpg,right,1619.5650000008754,true,high,NA,NA,NA,NA,NA,NA,NA,false
dAlXHsDS,3headtgn3s5yqh3y5nncdnm28bcvrm,3x3or7wpz3drzra2jck8ohpmecq8l2,dAlXHsDS,2020-0188,2020-06-04,10:36:52,10:56:47,NA,incomplete,181,gender,3,1,left,A_F_09.jpg,C_F_03.jpg,A_M_10.jpg,none,0,false,high,NA,NA,NA,NA,NA,NA,NA,false
dAlXHsDS,3headtgn3s5yqh3y5nncdnm28bcvrm,3x3or7wpz3drzra2jck8ohpmecq8l2,dAlXHsDS,2020-0188,2020-06-04,10:36:52,10:56:47,NA,incomplete,182,gender,3,0,right,A_M_14.jpg,A_F_08.jpg,C_M_13.jpg,right,952.7399999788031,true,high,NA,NA,NA,NA,NA,NA,NA,false
dAlXHsDS,3headtgn3s5yqh3y5nncdnm28bcvrm,3x3or7wpz3drzra2jck8ohpmecq8l2,dAlXHsDS,2020-0188,2020-06-04,10:36:52,10:56:47,NA,incomplete,183,gender,3,1,right,C_M_07.jpg,C_F_13.jpg,A_M_08.jpg,left,902.7850000129547,false,high,NA,NA,NA,NA,NA,NA,NA,false
dAlXHsDS,3headtgn3s5yqh3y5nncdnm28bcvrm,3x3or7wpz3drzra2jck8ohpmecq8l2,dAlXHsDS,2020-0188,2020-06-04,10:36:52,10:56:47,NA,incomplete,184,gender,3,1,right,A_M_05.jpg,A_F_14.jpg,C_M_10.jpg,right,1707.0499999972526,true,high,NA,NA,NA,NA,NA,NA,NA,false
dAlXHsDS,3headtgn3s5yqh3y5nncdnm28bcvrm,3x3or7wpz3drzra2jck8ohpmecq8l2,dAlXHsDS,2020-0188,2020-06-04,10:36:52,10:56:47,NA,incomplete,185,gender,3,1,left,A_F_03.jpg,C_F_08.jpg,A_M_10.jpg,right,1320.1850000186823,false,high,NA,NA,NA,NA,NA,NA,NA,false
dAlXHsDS,3headtgn3s5yqh3y5nncdnm28bcvrm,3x3or7wpz3drzra2jck8ohpmecq8l2,dAlXHsDS,2020-0188,2020-06-04,10:36:52,10:56:47,NA,incomplete,186,gender,3,1,right,A_M_13.jpg,A_F_16.jpg,C_M_08.jpg,right,1357.045000011567,true,high,NA,NA,NA,NA,NA,NA,NA,false
dAlXHsDS,3headtgn3s5yqh3y5nncdnm28bcvrm,3x3or7wpz3drzra2jck8ohpmecq8l2,dAlXHsDS,2020-0188,2020-06-04,10:36:52,10:56:47,NA,incomplete,187,gender,3,1,left,A_F_13.jpg,C_F_16.jpg,A_M_06.jpg,right,1320.22500000312,false,high,NA,NA,NA,NA,NA,NA,NA,false
dAlXHsDS,3headtgn3s5yqh3y5nncdnm28bcvrm,3x3or7wpz3drzra2jck8ohpmecq8l2,dAlXHsDS,2020-0188,2020-06-04,10:36:52,10:56:47,NA,incomplete,188,gender,3,1,right,C_F_01.jpg,C_M_14.jpg,A_F_12.jpg,right,837.9300000087824,true,high,NA,NA,NA,NA,NA,NA,NA,false
dAlXHsDS,3headtgn3s5yqh3y5nncdnm28bcvrm,3x3or7wpz3drzra2jck8ohpmecq8l2,dAlXHsDS,2020-0188,2020-06-04,10:36:52,10:56:47,NA,incomplete,189,gender,3,1,right,A_M_07.jpg,A_F_09.jpg,C_M_06.jpg,left,989.8700000194367,false,high,NA,NA,NA,NA,NA,NA,NA,false
dAlXHsDS,3headtgn3s5yqh3y5nncdnm28bcvrm,3x3or7wpz3drzra2jck8ohpmecq8l2,dAlXHsDS,2020-0188,2020-06-04,10:36:52,10:56:47,NA,incomplete,190,gender,3,0,right,C_F_10.jpg,C_M_14.jpg,A_F_02.jpg,right,1461.9649999949615,true,high,NA,NA,NA,NA,NA,NA,NA,false
dAlXHsDS,3headtgn3s5yqh3y5nncdnm28bcvrm,3x3or7wpz3drzra2jck8ohpmecq8l2,dAlXHsDS,2020-0188,2020-06-04,10:36:52,10:56:47,NA,incomplete,191,gender,3,1,right,C_F_09.jpg,C_M_01.jpg,A_F_14.jpg,right,1127.9100000101607,true,high,NA,NA,NA,NA,NA,NA,NA,false
dAlXHsDS,3headtgn3s5yqh3y5nncdnm28bcvrm,3x3or7wpz3drzra2jck8ohpmecq8l2,dAlXHsDS,2020-0188,2020-06-04,10:36:52,10:56:47,NA,incomplete,192,gender,3,1,right,C_M_01.jpg,C_F_06.jpg,A_M_14.jpg,right,1131.9399999920279,true,high,NA,NA,NA,NA,NA,NA,NA,false
dAlXHsDS,3headtgn3s5yqh3y5nncdnm28bcvrm,3x3or7wpz3drzra2jck8ohpmecq8l2,dAlXHsDS,2020-0188,2020-06-04,10:36:52,10:56:47,NA,incomplete,193,gender,3,1,right,A_F_15.jpg,A_M_14.jpg,C_F_02.jpg,left,1326.0449999943376,false,high,NA,NA,NA,NA,NA,NA,NA,false
dAlXHsDS,3headtgn3s5yqh3y5nncdnm28bcvrm,3x3or7wpz3drzra2jck8ohpmecq8l2,dAlXHsDS,2020-0188,2020-06-04,10:36:52,10:56:47,NA,incomplete,194,gender,3,1,right,A_F_08.jpg,A_M_11.jpg,C_F_01.jpg,left,1103.4550000040326,false,high,NA,NA,NA,NA,NA,NA,NA,false
dAlXHsDS,3headtgn3s5yqh3y5nncdnm28bcvrm,3x3or7wpz3drzra2jck8ohpmecq8l2,dAlXHsDS,2020-0188,2020-06-04,10:36:52,10:56:47,NA,incomplete,195,gender,3,1,left,C_F_05.jpg,A_F_08.jpg,C_M_09.jpg,right,938.5149999870919,false,high,NA,NA,NA,NA,NA,NA,NA,false
dAlXHsDS,3headtgn3s5yqh3y5nncdnm28bcvrm,3x3or7wpz3drzra2jck8ohpmecq8l2,dAlXHsDS,2020-0188,2020-06-04,10:36:52,10:56:47,NA,incomplete,196,gender,3,1,right,C_F_07.jpg,C_M_15.jpg,A_F_03.jpg,right,189.33500000275671,true,high,NA,NA,NA,NA,NA,NA,NA,false
dAlXHsDS,3headtgn3s5yqh3y5nncdnm28bcvrm,3x3or7wpz3drzra2jck8ohpmecq8l2,dAlXHsDS,2020-0188,2020-06-04,10:36:52,10:56:47,NA,incomplete,197,gender,3,1,left,C_M_03.jpg,A_M_08.jpg,C_F_07.jpg,right,949.2350000073202,false,high,NA,NA,NA,NA,NA,NA,NA,false
dAlXHsDS,3headtgn3s5yqh3y5nncdnm28bcvrm,3x3or7wpz3drzra2jck8ohpmecq8l2,dAlXHsDS,2020-0188,2020-06-04,10:36:52,10:56:47,NA,incomplete,198,gender,3,1,right,C_M_02.jpg,C_F_04.jpg,A_M_09.jpg,right,1637.620000023162,true,high,NA,NA,NA,NA,NA,NA,NA,false
dAlXHsDS,3headtgn3s5yqh3y5nncdnm28bcvrm,3x3or7wpz3drzra2jck8ohpmecq8l2,dAlXHsDS,2020-0188,2020-06-04,10:36:52,10:56:47,NA,incomplete,199,gender,3,1,right,A_M_13.jpg,A_F_06.jpg,C_M_02.jpg,right,1095.8650000102352,true,high,NA,NA,NA,NA,NA,NA,NA,false
dAlXHsDS,3headtgn3s5yqh3y5nncdnm28bcvrm,3x3or7wpz3drzra2jck8ohpmecq8l2,dAlXHsDS,2020-0188,2020-06-04,10:36:52,10:56:47,NA,incomplete,200,race,2,1,left,A_M_06.jpg,A_F_07.jpg,C_M_11.jpg,right,1458.9749999868218,false,high,NA,NA,NA,NA,NA,NA,NA,false
dAlXHsDS,3headtgn3s5yqh3y5nncdnm28bcvrm,3x3or7wpz3drzra2jck8ohpmecq8l2,dAlXHsDS,2020-0188,2020-06-04,10:36:52,10:56:47,NA,incomplete,201,race,2,1,left,A_M_14.jpg,A_F_16.jpg,C_M_12.jpg,left,1141.4799999911338,true,high,NA,NA,NA,NA,NA,NA,NA,false
dAlXHsDS,3headtgn3s5yqh3y5nncdnm28bcvrm,3x3or7wpz3drzra2jck8ohpmecq8l2,dAlXHsDS,2020-0188,2020-06-04,10:36:52,10:56:47,NA,incomplete,202,race,2,0,left,A_F_01.jpg,A_M_16.jpg,C_F_05.jpg,left,1555.434999987483,true,high,NA,NA,NA,NA,NA,NA,NA,false
dAlXHsDS,3headtgn3s5yqh3y5nncdnm28bcvrm,3x3or7wpz3drzra2jck8ohpmecq8l2,dAlXHsDS,2020-0188,2020-06-04,10:36:52,10:56:47,NA,incomplete,203,race,2,1,left,A_M_02.jpg,A_F_03.jpg,C_M_11.jpg,left,1820.2100000053179,true,high,NA,NA,NA,NA,NA,NA,NA,false
dAlXHsDS,3headtgn3s5yqh3y5nncdnm28bcvrm,3x3or7wpz3drzra2jck8ohpmecq8l2,dAlXHsDS,2020-0188,2020-06-04,10:36:52,10:56:47,NA,incomplete,204,race,2,1,left,A_M_02.jpg,A_F_14.jpg,C_M_03.jpg,left,851.1699999799021,true,high,NA,NA,NA,NA,NA,NA,NA,false
dAlXHsDS,3headtgn3s5yqh3y5nncdnm28bcvrm,3x3or7wpz3drzra2jck8ohpmecq8l2,dAlXHsDS,2020-0188,2020-06-04,10:36:52,10:56:47,NA,incomplete,205,race,2,1,left,A_F_15.jpg,A_M_11.jpg,C_F_12.jpg,right,1380.635000008624,false,high,NA,NA,NA,NA,NA,NA,NA,false
dAlXHsDS,3headtgn3s5yqh3y5nncdnm28bcvrm,3x3or7wpz3drzra2jck8ohpmecq8l2,dAlXHsDS,2020-0188,2020-06-04,10:36:52,10:56:47,NA,incomplete,206,race,2,1,right,C_M_07.jpg,A_M_05.jpg,C_F_08.jpg,right,1292.5650000106543,true,high,NA,NA,NA,NA,NA,NA,NA,false
dAlXHsDS,3headtgn3s5yqh3y5nncdnm28bcvrm,3x3or7wpz3drzra2jck8ohpmecq8l2,dAlXHsDS,2020-0188,2020-06-04,10:36:52,10:56:47,NA,incomplete,207,race,2,1,left,C_M_12.jpg,C_F_01.jpg,A_M_05.jpg,left,939.6899999992456,true,high,NA,NA,NA,NA,NA,NA,NA,false
dAlXHsDS,3headtgn3s5yqh3y5nncdnm28bcvrm,3x3or7wpz3drzra2jck8ohpmecq8l2,dAlXHsDS,2020-0188,2020-06-04,10:36:52,10:56:47,NA,incomplete,208,race,2,1,right,A_M_11.jpg,C_M_04.jpg,A_F_05.jpg,left,1161.0900000086986,false,high,NA,NA,NA,NA,NA,NA,NA,false
dAlXHsDS,3headtgn3s5yqh3y5nncdnm28bcvrm,3x3or7wpz3drzra2jck8ohpmecq8l2,dAlXHsDS,2020-0188,2020-06-04,10:36:52,10:56:47,NA,incomplete,209,race,2,1,left,C_M_11.jpg,C_F_08.jpg,A_M_06.jpg,right,1157.5949999969453,false,high,NA,NA,NA,NA,NA,NA,NA,false
dAlXHsDS,3headtgn3s5yqh3y5nncdnm28bcvrm,3x3or7wpz3drzra2jck8ohpmecq8l2,dAlXHsDS,2020-0188,2020-06-04,10:36:52,10:56:47,NA,incomplete,210,race,2,1,right,A_F_01.jpg,C_F_12.jpg,A_M_05.jpg,left,1488.7199999939185,false,high,NA,NA,NA,NA,NA,NA,NA,false
dAlXHsDS,3headtgn3s5yqh3y5nncdnm28bcvrm,3x3or7wpz3drzra2jck8ohpmecq8l2,dAlXHsDS,2020-0188,2020-06-04,10:36:52,10:56:47,NA,incomplete,211,race,2,1,right,C_M_06.jpg,A_M_14.jpg,C_F_09.jpg,right,1029.0049999894109,true,high,NA,NA,NA,NA,NA,NA,NA,false
dAlXHsDS,3headtgn3s5yqh3y5nncdnm28bcvrm,3x3or7wpz3drzra2jck8ohpmecq8l2,dAlXHsDS,2020-0188,2020-06-04,10:36:52,10:56:47,NA,incomplete,212,race,2,1,right,A_M_10.jpg,C_M_09.jpg,A_F_15.jpg,right,975.8600000059232,true,high,NA,NA,NA,NA,NA,NA,NA,false
dAlXHsDS,3headtgn3s5yqh3y5nncdnm28bcvrm,3x3or7wpz3drzra2jck8ohpmecq8l2,dAlXHsDS,2020-0188,2020-06-04,10:36:52,10:56:47,NA,incomplete,213,race,2,1,left,C_M_15.jpg,C_F_03.jpg,A_M_09.jpg,left,918.9250000054017,true,high,NA,NA,NA,NA,NA,NA,NA,false
dAlXHsDS,3headtgn3s5yqh3y5nncdnm28bcvrm,3x3or7wpz3drzra2jck8ohpmecq8l2,dAlXHsDS,2020-0188,2020-06-04,10:36:52,10:56:47,NA,incomplete,214,race,2,1,right,A_F_02.jpg,C_F_14.jpg,A_M_06.jpg,left,1233.5500000044703,false,high,NA,NA,NA,NA,NA,NA,NA,false
dAlXHsDS,3headtgn3s5yqh3y5nncdnm28bcvrm,3x3or7wpz3drzra2jck8ohpmecq8l2,dAlXHsDS,2020-0188,2020-06-04,10:36:52,10:56:47,NA,incomplete,215,race,2,0,right,A_M_10.jpg,C_M_04.jpg,A_F_12.jpg,left,1228.449999995064,false,high,NA,NA,NA,NA,NA,NA,NA,false
dAlXHsDS,3headtgn3s5yqh3y5nncdnm28bcvrm,3x3or7wpz3drzra2jck8ohpmecq8l2,dAlXHsDS,2020-0188,2020-06-04,10:36:52,10:56:47,NA,incomplete,216,race,2,1,right,C_M_13.jpg,A_M_04.jpg,C_F_12.jpg,right,763.4499999985565,true,high,NA,NA,NA,NA,NA,NA,NA,false
dAlXHsDS,3headtgn3s5yqh3y5nncdnm28bcvrm,3x3or7wpz3drzra2jck8ohpmecq8l2,dAlXHsDS,2020-0188,2020-06-04,10:36:52,10:56:47,NA,incomplete,217,race,2,1,right,C_M_12.jpg,A_M_16.jpg,C_F_14.jpg,right,1237.634999997681,true,high,NA,NA,NA,NA,NA,NA,NA,false
dAlXHsDS,3headtgn3s5yqh3y5nncdnm28bcvrm,3x3or7wpz3drzra2jck8ohpmecq8l2,dAlXHsDS,2020-0188,2020-06-04,10:36:52,10:56:47,NA,incomplete,218,race,2,1,left,C_M_11.jpg,C_F_15.jpg,A_M_02.jpg,left,1359.8800000036135,true,high,NA,NA,NA,NA,NA,NA,NA,false
dAlXHsDS,3headtgn3s5yqh3y5nncdnm28bcvrm,3x3or7wpz3drzra2jck8ohpmecq8l2,dAlXHsDS,2020-0188,2020-06-04,10:36:52,10:56:47,NA,incomplete,219,race,2,0,right,C_F_03.jpg,A_F_14.jpg,C_M_13.jpg,right,836.1399999994319,true,high,NA,NA,NA,NA,NA,NA,NA,false
dAlXHsDS,3headtgn3s5yqh3y5nncdnm28bcvrm,3x3or7wpz3drzra2jck8ohpmecq8l2,dAlXHsDS,2020-0188,2020-06-04,10:36:52,10:56:47,NA,incomplete,220,gender,3,1,right,A_M_09.jpg,A_F_14.jpg,C_M_05.jpg,right,1817.494999995688,true,high,NA,NA,NA,NA,NA,NA,NA,false
dAlXHsDS,3headtgn3s5yqh3y5nncdnm28bcvrm,3x3or7wpz3drzra2jck8ohpmecq8l2,dAlXHsDS,2020-0188,2020-06-04,10:36:52,10:56:47,NA,incomplete,221,gender,3,1,right,C_M_03.jpg,C_F_13.jpg,A_M_12.jpg,left,1524.7899999958463,false,high,NA,NA,NA,NA,NA,NA,NA,false
dAlXHsDS,3headtgn3s5yqh3y5nncdnm28bcvrm,3x3or7wpz3drzra2jck8ohpmecq8l2,dAlXHsDS,2020-0188,2020-06-04,10:36:52,10:56:47,NA,incomplete,222,gender,3,1,left,A_M_02.jpg,C_M_06.jpg,A_F_09.jpg,left,1019.4849999970756,true,high,NA,NA,NA,NA,NA,NA,NA,false
dAlXHsDS,3headtgn3s5yqh3y5nncdnm28bcvrm,3x3or7wpz3drzra2jck8ohpmecq8l2,dAlXHsDS,2020-0188,2020-06-04,10:36:52,10:56:47,NA,incomplete,223,gender,3,1,right,C_M_13.jpg,C_F_16.jpg,A_M_05.jpg,left,1243.1500000238884,false,high,NA,NA,NA,NA,NA,NA,NA,false
dAlXHsDS,3headtgn3s5yqh3y5nncdnm28bcvrm,3x3or7wpz3drzra2jck8ohpmecq8l2,dAlXHsDS,2020-0188,2020-06-04,10:36:52,10:56:47,NA,incomplete,224,gender,3,1,right,A_M_04.jpg,A_F_13.jpg,C_M_15.jpg,left,1015.2149999921676,false,high,NA,NA,NA,NA,NA,NA,NA,false
dAlXHsDS,3headtgn3s5yqh3y5nncdnm28bcvrm,3x3or7wpz3drzra2jck8ohpmecq8l2,dAlXHsDS,2020-0188,2020-06-04,10:36:52,10:56:47,NA,incomplete,225,gender,3,1,left,A_M_03.jpg,C_M_04.jpg,A_F_02.jpg,left,519.7499999776483,true,high,NA,NA,NA,NA,NA,NA,NA,false
dAlXHsDS,3headtgn3s5yqh3y5nncdnm28bcvrm,3x3or7wpz3drzra2jck8ohpmecq8l2,dAlXHsDS,2020-0188,2020-06-04,10:36:52,10:56:47,NA,incomplete,226,gender,3,0,right,A_F_04.jpg,A_M_09.jpg,C_F_06.jpg,right,1111.0200000111945,true,high,NA,NA,NA,NA,NA,NA,NA,false
dAlXHsDS,3headtgn3s5yqh3y5nncdnm28bcvrm,3x3or7wpz3drzra2jck8ohpmecq8l2,dAlXHsDS,2020-0188,2020-06-04,10:36:52,10:56:47,NA,incomplete,227,gender,3,1,right,A_F_15.jpg,A_M_11.jpg,C_F_16.jpg,right,1203.8250000041444,true,high,NA,NA,NA,NA,NA,NA,NA,false
dAlXHsDS,3headtgn3s5yqh3y5nncdnm28bcvrm,3x3or7wpz3drzra2jck8ohpmecq8l2,dAlXHsDS,2020-0188,2020-06-04,10:36:52,10:56:47,NA,incomplete,228,gender,3,1,left,A_M_08.jpg,C_M_03.jpg,A_F_05.jpg,right,1412.579999974696,false,high,NA,NA,NA,NA,NA,NA,NA,false
dAlXHsDS,3headtgn3s5yqh3y5nncdnm28bcvrm,3x3or7wpz3drzra2jck8ohpmecq8l2,dAlXHsDS,2020-0188,2020-06-04,10:36:52,10:56:47,NA,incomplete,229,gender,3,1,right,C_M_01.jpg,C_F_08.jpg,A_M_16.jpg,right,1277.830000006361,true,high,NA,NA,NA,NA,NA,NA,NA,false
dAlXHsDS,3headtgn3s5yqh3y5nncdnm28bcvrm,3x3or7wpz3drzra2jck8ohpmecq8l2,dAlXHsDS,2020-0188,2020-06-04,10:36:52,10:56:47,NA,incomplete,230,gender,3,1,right,C_M_14.jpg,C_F_02.jpg,A_M_03.jpg,right,1312.9400000034366,true,high,NA,NA,NA,NA,NA,NA,NA,false
dAlXHsDS,3headtgn3s5yqh3y5nncdnm28bcvrm,3x3or7wpz3drzra2jck8ohpmecq8l2,dAlXHsDS,2020-0188,2020-06-04,10:36:52,10:56:47,NA,incomplete,231,gender,3,1,left,C_M_15.jpg,A_M_16.jpg,C_F_12.jpg,right,892.5600000075065,false,high,NA,NA,NA,NA,NA,NA,NA,false
dAlXHsDS,3headtgn3s5yqh3y5nncdnm28bcvrm,3x3or7wpz3drzra2jck8ohpmecq8l2,dAlXHsDS,2020-0188,2020-06-04,10:36:52,10:56:47,NA,incomplete,232,gender,3,1,right,A_M_12.jpg,A_F_07.jpg,C_M_01.jpg,right,824.6349999972153,true,high,NA,NA,NA,NA,NA,NA,NA,false
dAlXHsDS,3headtgn3s5yqh3y5nncdnm28bcvrm,3x3or7wpz3drzra2jck8ohpmecq8l2,dAlXHsDS,2020-0188,2020-06-04,10:36:52,10:56:47,NA,incomplete,233,gender,3,1,left,A_M_03.jpg,C_M_10.jpg,A_F_15.jpg,left,1594.6850000182167,true,high,NA,NA,NA,NA,NA,NA,NA,false
dAlXHsDS,3headtgn3s5yqh3y5nncdnm28bcvrm,3x3or7wpz3drzra2jck8ohpmecq8l2,dAlXHsDS,2020-0188,2020-06-04,10:36:52,10:56:47,NA,incomplete,234,gender,3,1,left,C_F_13.jpg,A_F_07.jpg,C_M_14.jpg,right,970.7250000210479,false,high,NA,NA,NA,NA,NA,NA,NA,false
dAlXHsDS,3headtgn3s5yqh3y5nncdnm28bcvrm,3x3or7wpz3drzra2jck8ohpmecq8l2,dAlXHsDS,2020-0188,2020-06-04,10:36:52,10:56:47,NA,incomplete,235,gender,3,1,right,C_F_02.jpg,C_M_03.jpg,A_F_01.jpg,left,1346.7600000149105,false,high,NA,NA,NA,NA,NA,NA,NA,false
dAlXHsDS,3headtgn3s5yqh3y5nncdnm28bcvrm,3x3or7wpz3drzra2jck8ohpmecq8l2,dAlXHsDS,2020-0188,2020-06-04,10:36:52,10:56:47,NA,incomplete,236,gender,3,0,left,C_M_15.jpg,A_M_01.jpg,C_F_07.jpg,right,1646.4350000023842,false,high,NA,NA,NA,NA,NA,NA,NA,false
dAlXHsDS,3headtgn3s5yqh3y5nncdnm28bcvrm,3x3or7wpz3drzra2jck8ohpmecq8l2,dAlXHsDS,2020-0188,2020-06-04,10:36:52,10:56:47,NA,incomplete,237,gender,3,1,left,A_M_15.jpg,C_M_02.jpg,A_F_09.jpg,right,894.2700000188779,false,high,NA,NA,NA,NA,NA,NA,NA,false
dAlXHsDS,3headtgn3s5yqh3y5nncdnm28bcvrm,3x3or7wpz3drzra2jck8ohpmecq8l2,dAlXHsDS,2020-0188,2020-06-04,10:36:52,10:56:47,NA,incomplete,238,gender,3,0,right,A_F_03.jpg,A_M_14.jpg,C_F_07.jpg,left,1102.3500000010245,false,high,NA,NA,NA,NA,NA,NA,NA,false
dAlXHsDS,3headtgn3s5yqh3y5nncdnm28bcvrm,3x3or7wpz3drzra2jck8ohpmecq8l2,dAlXHsDS,2020-0188,2020-06-04,10:36:52,10:56:47,NA,incomplete,239,gender,3,1,left,C_M_07.jpg,A_M_04.jpg,C_F_10.jpg,right,1529.5599999953993,false,high,NA,NA,NA,NA,NA,NA,NA,false
dAlXHsDS,3headtgn3s5yqh3y5nncdnm28bcvrm,3x3or7wpz3drzra2jck8ohpmecq8l2,dAlXHsDS,2020-0188,2020-06-04,10:36:52,10:56:47,NA,NA,instruction example,shape,NA,NA,NA,Green_Triangle_Grid_1.jpg,Blue_Triangle_Stripes_4.jpg,Green_Circle_Chess_3.jpg,NA,NA,NA,NA,NA,NA,NA,NA,NA,NA,NA,undefined
dAlXHsDS,3headtgn3s5yqh3y5nncdnm28bcvrm,3x3or7wpz3drzra2jck8ohpmecq8l2,dAlXHsDS,2020-0188,2020-06-04,10:36:52,10:56:47,NA,NA,instruction example,shape,NA,NA,NA,Blue_Circle_Grid_1.jpg,Blue_Star_Dots_4.jpg,Green_Circle_Stripes_3.jpg,NA,NA,NA,NA,NA,NA,NA,NA,NA,NA,NA,undefined
dAlXHsDS,3headtgn3s5yqh3y5nncdnm28bcvrm,3x3or7wpz3drzra2jck8ohpmecq8l2,dAlXHsDS,2020-0188,2020-06-04,10:36:52,10:56:47,NA,NA,instruction example,shape,NA,NA,NA,A_F_01.jpg,A_M_10.jpg,C_F_02.jpg,NA,NA,NA,NA,NA,NA,NA,NA,NA,NA,NA,undefined
dAlXHsDS,3headtgn3s5yqh3y5nncdnm28bcvrm,3x3or7wpz3drzra2jck8ohpmecq8l2,dAlXHsDS,2020-0188,2020-06-04,10:36:52,10:56:47,NA,NA,instruction example,shape,NA,NA,NA,A_M_05.jpg,C_M_08.jpg,A_F_07.jpg,NA,NA,NA,NA,NA,NA,NA,NA,NA,NA,NA,undefined
dAlXHsDS,3headtgn3s5yqh3y5nncdnm28bcvrm,3x3or7wpz3drzra2jck8ohpmecq8l2,dAlXHsDS,2020-0188,2020-06-04,10:36:52,10:56:47,1172692.0350000146,1196124.5650000055,NA,NA,NA,NA,NA,NA,NA,NA,NA,NA,NA,NA,28 ,White/Caucasian,Male,White,no,no,no,undefined
