workerId,hitId,assignmentId,subject,studyid,exp_date,exp_start,exp_end,time_start,time_end,trial,type,sequence,reward_validity,answer,image_top,image_left,image_right,response,response_time,response_acc,volatility,practice
6f7Dkwgy,379ol9dbtvr9qb2hghaat1q2k68y9b,3xxu1swe8q8sljevrhi3mo3t13l0ax,6f7Dkwgy,2020-0188,2020-06-04,10:12:20,10:33:25,NA,incomplete,0,filling,0,1,left,Green_Circle_Chess_1.jpg,Red_Triangle_Chess_4.jpg,Blue_Star_Grid_1.jpg,right,751.9750000210479,false,NA,true
6f7Dkwgy,379ol9dbtvr9qb2hghaat1q2k68y9b,3xxu1swe8q8sljevrhi3mo3t13l0ax,6f7Dkwgy,2020-0188,2020-06-04,10:12:20,10:33:25,NA,incomplete,1,filling,0,1,left,Green_Star_Stripes_2.jpg,Red_Plus_Stripes_4.jpg,Blue_Triangle_Chess_2.jpg,left,1161.0399999190122,true,NA,true
6f7Dkwgy,379ol9dbtvr9qb2hghaat1q2k68y9b,3xxu1swe8q8sljevrhi3mo3t13l0ax,6f7Dkwgy,2020-0188,2020-06-04,10:12:20,10:33:25,NA,incomplete,2,filling,0,0,right,Purple_Star_Grid_2.jpg,Blue_Triangle_Chess_2.jpg,Green_Plus_Grid_3.jpg,right,916.9799999799579,true,NA,true
6f7Dkwgy,379ol9dbtvr9qb2hghaat1q2k68y9b,3xxu1swe8q8sljevrhi3mo3t13l0ax,6f7Dkwgy,2020-0188,2020-06-04,10:12:20,10:33:25,NA,incomplete,3,filling,0,1,right,Blue_Triangle_Grid_2.jpg,Purple_Star_Dots_2.jpg,Red_Circle_Grid_4.jpg,right,706.2450000084937,true,NA,true
6f7Dkwgy,379ol9dbtvr9qb2hghaat1q2k68y9b,3xxu1swe8q8sljevrhi3mo3t13l0ax,6f7Dkwgy,2020-0188,2020-06-04,10:12:20,10:33:25,NA,incomplete,4,filling,0,1,left,Green_Circle_Chess_1.jpg,Blue_Plus_Chess_3.jpg,Red_Star_Stripes_1.jpg,left,728.4450000151992,true,NA,true
6f7Dkwgy,379ol9dbtvr9qb2hghaat1q2k68y9b,3xxu1swe8q8sljevrhi3mo3t13l0ax,6f7Dkwgy,2020-0188,2020-06-04,10:12:20,10:33:25,NA,incomplete,5,filling,0,1,right,Green_Star_Chess_2.jpg,Purple_Circle_Stripes_2.jpg,Blue_Triangle_Chess_3.jpg,right,734.569999971427,true,NA,true
6f7Dkwgy,379ol9dbtvr9qb2hghaat1q2k68y9b,3xxu1swe8q8sljevrhi3mo3t13l0ax,6f7Dkwgy,2020-0188,2020-06-04,10:12:20,10:33:25,NA,incomplete,6,filling,0,1,right,Green_Plus_Dots_1.jpg,Purple_Triangle_Stripes_1.jpg,Blue_Star_Dots_2.jpg,left,914.4050000468269,false,NA,true
6f7Dkwgy,379ol9dbtvr9qb2hghaat1q2k68y9b,3xxu1swe8q8sljevrhi3mo3t13l0ax,6f7Dkwgy,2020-0188,2020-06-04,10:12:20,10:33:25,NA,incomplete,7,filling,0,1,left,Purple_Star_Chess_2.jpg,Green_Circle_Chess_1.jpg,Red_Triangle_Stripes_2.jpg,left,888.8899999437854,true,NA,true
6f7Dkwgy,379ol9dbtvr9qb2hghaat1q2k68y9b,3xxu1swe8q8sljevrhi3mo3t13l0ax,6f7Dkwgy,2020-0188,2020-06-04,10:12:20,10:33:25,NA,incomplete,8,filling,0,1,right,Red_Star_Grid_3.jpg,Green_Plus_Stripes_3.jpg,Blue_Circle_Grid_2.jpg,right,783.5750000085682,true,NA,true
6f7Dkwgy,379ol9dbtvr9qb2hghaat1q2k68y9b,3xxu1swe8q8sljevrhi3mo3t13l0ax,6f7Dkwgy,2020-0188,2020-06-04,10:12:20,10:33:25,NA,incomplete,9,filling,0,1,right,Blue_Plus_Chess_3.jpg,Purple_Star_Grid_3.jpg,Green_Triangle_Chess_1.jpg,right,986.7250000825152,true,NA,true
6f7Dkwgy,379ol9dbtvr9qb2hghaat1q2k68y9b,3xxu1swe8q8sljevrhi3mo3t13l0ax,6f7Dkwgy,2020-0188,2020-06-04,10:12:20,10:33:25,NA,incomplete,10,filling,0,0,left,Green_Circle_Grid_4.jpg,Purple_Plus_Grid_2.jpg,Red_Triangle_Stripes_4.jpg,left,1014.2500000074506,true,NA,true
6f7Dkwgy,379ol9dbtvr9qb2hghaat1q2k68y9b,3xxu1swe8q8sljevrhi3mo3t13l0ax,6f7Dkwgy,2020-0188,2020-06-04,10:12:20,10:33:25,NA,incomplete,11,filling,0,1,right,Red_Plus_Grid_1.jpg,Blue_Circle_Dots_1.jpg,Purple_Star_Grid_2.jpg,right,941.6800000471994,true,NA,true
6f7Dkwgy,379ol9dbtvr9qb2hghaat1q2k68y9b,3xxu1swe8q8sljevrhi3mo3t13l0ax,6f7Dkwgy,2020-0188,2020-06-04,10:12:20,10:33:25,NA,incomplete,12,filling,0,1,right,Green_Circle_Stripes_1.jpg,Blue_Star_Dots_1.jpg,Purple_Triangle_Stripes_4.jpg,right,763.9549999730662,true,NA,true
6f7Dkwgy,379ol9dbtvr9qb2hghaat1q2k68y9b,3xxu1swe8q8sljevrhi3mo3t13l0ax,6f7Dkwgy,2020-0188,2020-06-04,10:12:20,10:33:25,NA,incomplete,13,filling,0,1,left,Purple_Circle_Stripes_1.jpg,Green_Star_Stripes_2.jpg,Blue_Plus_Chess_1.jpg,left,807.0499999448657,true,NA,true
6f7Dkwgy,379ol9dbtvr9qb2hghaat1q2k68y9b,3xxu1swe8q8sljevrhi3mo3t13l0ax,6f7Dkwgy,2020-0188,2020-06-04,10:12:20,10:33:25,NA,incomplete,14,filling,0,1,right,Red_Star_Stripes_2.jpg,Purple_Triangle_Dots_2.jpg,Green_Plus_Stripes_1.jpg,right,1007.8500000527129,true,NA,true
6f7Dkwgy,379ol9dbtvr9qb2hghaat1q2k68y9b,3xxu1swe8q8sljevrhi3mo3t13l0ax,6f7Dkwgy,2020-0188,2020-06-04,10:12:20,10:33:25,NA,incomplete,15,filling,0,1,right,Green_Star_Stripes_4.jpg,Red_Circle_Grid_4.jpg,Purple_Triangle_Stripes_3.jpg,right,938.0250000394881,true,NA,true
6f7Dkwgy,379ol9dbtvr9qb2hghaat1q2k68y9b,3xxu1swe8q8sljevrhi3mo3t13l0ax,6f7Dkwgy,2020-0188,2020-06-04,10:12:20,10:33:25,NA,incomplete,16,filling,0,1,right,Green_Circle_Dots_3.jpg,Purple_Plus_Stripes_3.jpg,Red_Triangle_Dots_1.jpg,right,735.2350000292063,true,NA,true
6f7Dkwgy,379ol9dbtvr9qb2hghaat1q2k68y9b,3xxu1swe8q8sljevrhi3mo3t13l0ax,6f7Dkwgy,2020-0188,2020-06-04,10:12:20,10:33:25,NA,incomplete,17,filling,0,1,left,Green_Triangle_Dots_4.jpg,Purple_Circle_Dots_1.jpg,Red_Star_Stripes_4.jpg,left,730.1949999528006,true,NA,true
6f7Dkwgy,379ol9dbtvr9qb2hghaat1q2k68y9b,3xxu1swe8q8sljevrhi3mo3t13l0ax,6f7Dkwgy,2020-0188,2020-06-04,10:12:20,10:33:25,NA,incomplete,18,filling,0,1,left,Blue_Star_Grid_1.jpg,Green_Circle_Grid_3.jpg,Purple_Triangle_Stripes_1.jpg,left,879.5600000303239,true,NA,true
6f7Dkwgy,379ol9dbtvr9qb2hghaat1q2k68y9b,3xxu1swe8q8sljevrhi3mo3t13l0ax,6f7Dkwgy,2020-0188,2020-06-04,10:12:20,10:33:25,NA,incomplete,19,filling,0,1,right,Blue_Star_Chess_4.jpg,Green_Plus_Stripes_4.jpg,Red_Circle_Chess_3.jpg,right,1072.3849999485537,true,NA,true
6f7Dkwgy,379ol9dbtvr9qb2hghaat1q2k68y9b,3xxu1swe8q8sljevrhi3mo3t13l0ax,6f7Dkwgy,2020-0188,2020-06-04,10:12:20,10:33:25,NA,incomplete,20,number,1,1,left,Red_Star_Stripes_2.jpg,Purple_Plus_Dots_2.jpg,Blue_Circle_Stripes_4.jpg,right,753.0499999411404,false,NA,true
6f7Dkwgy,379ol9dbtvr9qb2hghaat1q2k68y9b,3xxu1swe8q8sljevrhi3mo3t13l0ax,6f7Dkwgy,2020-0188,2020-06-04,10:12:20,10:33:25,NA,incomplete,21,number,1,1,left,Green_Star_Chess_3.jpg,Purple_Circle_Dots_3.jpg,Blue_Triangle_Chess_1.jpg,left,1059.3250000383705,true,NA,true
6f7Dkwgy,379ol9dbtvr9qb2hghaat1q2k68y9b,3xxu1swe8q8sljevrhi3mo3t13l0ax,6f7Dkwgy,2020-0188,2020-06-04,10:12:20,10:33:25,NA,incomplete,22,number,1,1,right,Purple_Star_Grid_4.jpg,Blue_Triangle_Grid_3.jpg,Green_Plus_Stripes_4.jpg,right,857.5350000755861,true,NA,true
6f7Dkwgy,379ol9dbtvr9qb2hghaat1q2k68y9b,3xxu1swe8q8sljevrhi3mo3t13l0ax,6f7Dkwgy,2020-0188,2020-06-04,10:12:20,10:33:25,NA,incomplete,23,number,1,1,left,Green_Star_Dots_3.jpg,Red_Triangle_Chess_3.jpg,Purple_Plus_Dots_4.jpg,left,754.9049999797717,true,NA,true
6f7Dkwgy,379ol9dbtvr9qb2hghaat1q2k68y9b,3xxu1swe8q8sljevrhi3mo3t13l0ax,6f7Dkwgy,2020-0188,2020-06-04,10:12:20,10:33:25,NA,incomplete,24,number,1,1,right,Green_Star_Grid_2.jpg,Purple_Triangle_Grid_1.jpg,Red_Plus_Dots_2.jpg,right,750.3499999875203,true,NA,true
6f7Dkwgy,379ol9dbtvr9qb2hghaat1q2k68y9b,3xxu1swe8q8sljevrhi3mo3t13l0ax,6f7Dkwgy,2020-0188,2020-06-04,10:12:20,10:33:25,NA,incomplete,25,number,1,0,left,Purple_Circle_Dots_3.jpg,Red_Plus_Grid_3.jpg,Blue_Triangle_Dots_4.jpg,left,715.9299999475479,true,NA,true
6f7Dkwgy,379ol9dbtvr9qb2hghaat1q2k68y9b,3xxu1swe8q8sljevrhi3mo3t13l0ax,6f7Dkwgy,2020-0188,2020-06-04,10:12:20,10:33:25,NA,incomplete,26,number,1,1,left,Green_Triangle_Dots_3.jpg,Purple_Circle_Stripes_3.jpg,Blue_Plus_Dots_4.jpg,left,953.5499999765307,true,NA,true
6f7Dkwgy,379ol9dbtvr9qb2hghaat1q2k68y9b,3xxu1swe8q8sljevrhi3mo3t13l0ax,6f7Dkwgy,2020-0188,2020-06-04,10:12:20,10:33:25,NA,incomplete,27,number,1,1,right,Red_Plus_Grid_3.jpg,Blue_Triangle_Grid_4.jpg,Green_Circle_Stripes_3.jpg,right,796.3150000432506,true,NA,true
6f7Dkwgy,379ol9dbtvr9qb2hghaat1q2k68y9b,3xxu1swe8q8sljevrhi3mo3t13l0ax,6f7Dkwgy,2020-0188,2020-06-04,10:12:20,10:33:25,NA,incomplete,28,number,1,0,left,Blue_Triangle_Dots_3.jpg,Green_Star_Chess_3.jpg,Purple_Plus_Dots_2.jpg,left,864.8899999679998,true,NA,true
6f7Dkwgy,379ol9dbtvr9qb2hghaat1q2k68y9b,3xxu1swe8q8sljevrhi3mo3t13l0ax,6f7Dkwgy,2020-0188,2020-06-04,10:12:20,10:33:25,NA,incomplete,29,number,1,1,right,Blue_Triangle_Stripes_1.jpg,Green_Plus_Stripes_3.jpg,Red_Circle_Dots_1.jpg,right,888.1950000068173,true,NA,true
6f7Dkwgy,379ol9dbtvr9qb2hghaat1q2k68y9b,3xxu1swe8q8sljevrhi3mo3t13l0ax,6f7Dkwgy,2020-0188,2020-06-04,10:12:20,10:33:25,NA,incomplete,30,number,1,0,left,Red_Star_Dots_4.jpg,Green_Plus_Stripes_4.jpg,Purple_Triangle_Dots_3.jpg,left,1046.1999999824911,true,NA,true
6f7Dkwgy,379ol9dbtvr9qb2hghaat1q2k68y9b,3xxu1swe8q8sljevrhi3mo3t13l0ax,6f7Dkwgy,2020-0188,2020-06-04,10:12:20,10:33:25,NA,incomplete,31,number,1,0,right,Red_Circle_Dots_4.jpg,Blue_Star_Dots_2.jpg,Purple_Plus_Chess_4.jpg,right,829.2050000745803,true,NA,true
6f7Dkwgy,379ol9dbtvr9qb2hghaat1q2k68y9b,3xxu1swe8q8sljevrhi3mo3t13l0ax,6f7Dkwgy,2020-0188,2020-06-04,10:12:20,10:33:25,NA,incomplete,32,number,1,1,left,Blue_Star_Chess_3.jpg,Purple_Triangle_Stripes_3.jpg,Green_Circle_Chess_2.jpg,left,910.3500000201166,true,NA,true
6f7Dkwgy,379ol9dbtvr9qb2hghaat1q2k68y9b,3xxu1swe8q8sljevrhi3mo3t13l0ax,6f7Dkwgy,2020-0188,2020-06-04,10:12:20,10:33:25,NA,incomplete,33,number,1,1,right,Green_Plus_Grid_3.jpg,Blue_Star_Grid_2.jpg,Red_Triangle_Chess_3.jpg,right,564.9149999953806,true,NA,true
6f7Dkwgy,379ol9dbtvr9qb2hghaat1q2k68y9b,3xxu1swe8q8sljevrhi3mo3t13l0ax,6f7Dkwgy,2020-0188,2020-06-04,10:12:20,10:33:25,NA,incomplete,34,number,1,1,left,Blue_Star_Grid_4.jpg,Red_Plus_Chess_4.jpg,Green_Circle_Grid_2.jpg,left,514.0200000023469,true,NA,true
6f7Dkwgy,379ol9dbtvr9qb2hghaat1q2k68y9b,3xxu1swe8q8sljevrhi3mo3t13l0ax,6f7Dkwgy,2020-0188,2020-06-04,10:12:20,10:33:25,NA,incomplete,35,number,1,1,left,Blue_Plus_Grid_1.jpg,Green_Star_Chess_1.jpg,Purple_Circle_Grid_4.jpg,right,473.00999995786697,false,NA,true
6f7Dkwgy,379ol9dbtvr9qb2hghaat1q2k68y9b,3xxu1swe8q8sljevrhi3mo3t13l0ax,6f7Dkwgy,2020-0188,2020-06-04,10:12:20,10:33:25,NA,incomplete,36,number,1,0,right,Red_Circle_Dots_2.jpg,Blue_Plus_Dots_1.jpg,Green_Triangle_Stripes_2.jpg,right,837.1200000401586,true,NA,true
6f7Dkwgy,379ol9dbtvr9qb2hghaat1q2k68y9b,3xxu1swe8q8sljevrhi3mo3t13l0ax,6f7Dkwgy,2020-0188,2020-06-04,10:12:20,10:33:25,NA,incomplete,37,number,1,1,left,Blue_Triangle_Dots_4.jpg,Purple_Circle_Chess_4.jpg,Red_Star_Dots_2.jpg,left,544.3199999863282,true,NA,true
6f7Dkwgy,379ol9dbtvr9qb2hghaat1q2k68y9b,3xxu1swe8q8sljevrhi3mo3t13l0ax,6f7Dkwgy,2020-0188,2020-06-04,10:12:20,10:33:25,NA,incomplete,38,number,1,1,right,Purple_Circle_Stripes_3.jpg,Red_Star_Stripes_1.jpg,Blue_Triangle_Chess_3.jpg,right,507.9899999545887,true,NA,true
6f7Dkwgy,379ol9dbtvr9qb2hghaat1q2k68y9b,3xxu1swe8q8sljevrhi3mo3t13l0ax,6f7Dkwgy,2020-0188,2020-06-04,10:12:20,10:33:25,NA,incomplete,39,number,1,0,left,Blue_Star_Chess_1.jpg,Green_Triangle_Dots_1.jpg,Purple_Circle_Chess_4.jpg,left,538.7650000629947,true,NA,true
6f7Dkwgy,379ol9dbtvr9qb2hghaat1q2k68y9b,3xxu1swe8q8sljevrhi3mo3t13l0ax,6f7Dkwgy,2020-0188,2020-06-04,10:12:20,10:33:25,NA,incomplete,0,filling,0,1,right,Purple_Circle_Grid_1.jpg,Green_Triangle_Stripes_1.jpg,Blue_Plus_Grid_4.jpg,left,763.8900000602007,false,low,false
6f7Dkwgy,379ol9dbtvr9qb2hghaat1q2k68y9b,3xxu1swe8q8sljevrhi3mo3t13l0ax,6f7Dkwgy,2020-0188,2020-06-04,10:12:20,10:33:25,NA,incomplete,1,filling,0,1,left,Purple_Plus_Chess_1.jpg,Red_Star_Chess_4.jpg,Blue_Circle_Grid_1.jpg,left,790.4449999332428,true,low,false
6f7Dkwgy,379ol9dbtvr9qb2hghaat1q2k68y9b,3xxu1swe8q8sljevrhi3mo3t13l0ax,6f7Dkwgy,2020-0188,2020-06-04,10:12:20,10:33:25,NA,incomplete,2,filling,0,1,left,Green_Triangle_Stripes_3.jpg,Purple_Circle_Stripes_1.jpg,Blue_Star_Grid_3.jpg,left,890.004999935627,true,low,false
6f7Dkwgy,379ol9dbtvr9qb2hghaat1q2k68y9b,3xxu1swe8q8sljevrhi3mo3t13l0ax,6f7Dkwgy,2020-0188,2020-06-04,10:12:20,10:33:25,NA,incomplete,3,filling,0,1,right,Green_Plus_Dots_1.jpg,Blue_Triangle_Chess_1.jpg,Purple_Star_Dots_2.jpg,right,840.1650000596419,true,low,false
6f7Dkwgy,379ol9dbtvr9qb2hghaat1q2k68y9b,3xxu1swe8q8sljevrhi3mo3t13l0ax,6f7Dkwgy,2020-0188,2020-06-04,10:12:20,10:33:25,NA,incomplete,4,filling,0,1,right,Blue_Star_Dots_4.jpg,Purple_Plus_Chess_4.jpg,Red_Triangle_Dots_2.jpg,right,834.279999951832,true,low,false
6f7Dkwgy,379ol9dbtvr9qb2hghaat1q2k68y9b,3xxu1swe8q8sljevrhi3mo3t13l0ax,6f7Dkwgy,2020-0188,2020-06-04,10:12:20,10:33:25,NA,incomplete,5,filling,0,1,left,Green_Circle_Grid_2.jpg,Purple_Star_Grid_1.jpg,Red_Triangle_Stripes_2.jpg,right,786.2749999621883,false,low,false
6f7Dkwgy,379ol9dbtvr9qb2hghaat1q2k68y9b,3xxu1swe8q8sljevrhi3mo3t13l0ax,6f7Dkwgy,2020-0188,2020-06-04,10:12:20,10:33:25,NA,incomplete,6,filling,0,0,left,Blue_Circle_Chess_1.jpg,Purple_Triangle_Chess_3.jpg,Green_Star_Dots_1.jpg,left,746.140000061132,true,low,false
6f7Dkwgy,379ol9dbtvr9qb2hghaat1q2k68y9b,3xxu1swe8q8sljevrhi3mo3t13l0ax,6f7Dkwgy,2020-0188,2020-06-04,10:12:20,10:33:25,NA,incomplete,7,filling,0,1,right,Blue_Circle_Grid_4.jpg,Green_Plus_Chess_4.jpg,Red_Star_Grid_2.jpg,left,986.3999999361113,false,low,false
6f7Dkwgy,379ol9dbtvr9qb2hghaat1q2k68y9b,3xxu1swe8q8sljevrhi3mo3t13l0ax,6f7Dkwgy,2020-0188,2020-06-04,10:12:20,10:33:25,NA,incomplete,8,filling,0,1,right,Green_Star_Grid_3.jpg,Blue_Circle_Chess_3.jpg,Purple_Triangle_Grid_2.jpg,left,842.4850000301376,false,low,false
6f7Dkwgy,379ol9dbtvr9qb2hghaat1q2k68y9b,3xxu1swe8q8sljevrhi3mo3t13l0ax,6f7Dkwgy,2020-0188,2020-06-04,10:12:20,10:33:25,NA,incomplete,9,filling,0,0,left,Blue_Circle_Stripes_1.jpg,Red_Plus_Stripes_2.jpg,Green_Triangle_Grid_1.jpg,left,805.4750000592321,true,low,false
6f7Dkwgy,379ol9dbtvr9qb2hghaat1q2k68y9b,3xxu1swe8q8sljevrhi3mo3t13l0ax,6f7Dkwgy,2020-0188,2020-06-04,10:12:20,10:33:25,NA,incomplete,10,filling,0,1,right,Purple_Triangle_Stripes_3.jpg,Red_Plus_Grid_3.jpg,Blue_Star_Stripes_1.jpg,right,823.7750000553206,true,low,false
6f7Dkwgy,379ol9dbtvr9qb2hghaat1q2k68y9b,3xxu1swe8q8sljevrhi3mo3t13l0ax,6f7Dkwgy,2020-0188,2020-06-04,10:12:20,10:33:25,NA,incomplete,11,filling,0,1,right,Purple_Star_Grid_1.jpg,Blue_Circle_Chess_1.jpg,Green_Plus_Grid_4.jpg,right,789.4249999662861,true,low,false
6f7Dkwgy,379ol9dbtvr9qb2hghaat1q2k68y9b,3xxu1swe8q8sljevrhi3mo3t13l0ax,6f7Dkwgy,2020-0188,2020-06-04,10:12:20,10:33:25,NA,incomplete,12,filling,0,1,right,Blue_Plus_Stripes_4.jpg,Red_Triangle_Chess_4.jpg,Purple_Circle_Stripes_1.jpg,right,945.3150000190362,true,low,false
6f7Dkwgy,379ol9dbtvr9qb2hghaat1q2k68y9b,3xxu1swe8q8sljevrhi3mo3t13l0ax,6f7Dkwgy,2020-0188,2020-06-04,10:12:20,10:33:25,NA,incomplete,13,filling,0,1,left,Red_Star_Grid_2.jpg,Blue_Plus_Grid_4.jpg,Green_Triangle_Stripes_2.jpg,left,781.639999942854,true,low,false
6f7Dkwgy,379ol9dbtvr9qb2hghaat1q2k68y9b,3xxu1swe8q8sljevrhi3mo3t13l0ax,6f7Dkwgy,2020-0188,2020-06-04,10:12:20,10:33:25,NA,incomplete,14,filling,0,1,left,Blue_Star_Dots_2.jpg,Purple_Plus_Dots_3.jpg,Red_Circle_Stripes_2.jpg,right,666.5800000773743,false,low,false
6f7Dkwgy,379ol9dbtvr9qb2hghaat1q2k68y9b,3xxu1swe8q8sljevrhi3mo3t13l0ax,6f7Dkwgy,2020-0188,2020-06-04,10:12:20,10:33:25,NA,incomplete,15,filling,0,1,left,Purple_Triangle_Dots_4.jpg,Red_Star_Dots_2.jpg,Green_Plus_Stripes_4.jpg,left,697.3299999954179,true,low,false
6f7Dkwgy,379ol9dbtvr9qb2hghaat1q2k68y9b,3xxu1swe8q8sljevrhi3mo3t13l0ax,6f7Dkwgy,2020-0188,2020-06-04,10:12:20,10:33:25,NA,incomplete,16,filling,0,1,left,Green_Star_Grid_4.jpg,Purple_Circle_Grid_2.jpg,Red_Triangle_Dots_4.jpg,left,768.9549999777228,true,low,false
6f7Dkwgy,379ol9dbtvr9qb2hghaat1q2k68y9b,3xxu1swe8q8sljevrhi3mo3t13l0ax,6f7Dkwgy,2020-0188,2020-06-04,10:12:20,10:33:25,NA,incomplete,17,filling,0,1,left,Green_Triangle_Dots_1.jpg,Blue_Circle_Dots_4.jpg,Red_Plus_Chess_1.jpg,left,707.9699999885634,true,low,false
6f7Dkwgy,379ol9dbtvr9qb2hghaat1q2k68y9b,3xxu1swe8q8sljevrhi3mo3t13l0ax,6f7Dkwgy,2020-0188,2020-06-04,10:12:20,10:33:25,NA,incomplete,18,filling,0,1,left,Blue_Triangle_Chess_4.jpg,Green_Star_Chess_2.jpg,Red_Circle_Grid_4.jpg,right,714.0800000634044,false,low,false
6f7Dkwgy,379ol9dbtvr9qb2hghaat1q2k68y9b,3xxu1swe8q8sljevrhi3mo3t13l0ax,6f7Dkwgy,2020-0188,2020-06-04,10:12:20,10:33:25,NA,incomplete,19,filling,0,1,left,Green_Triangle_Chess_3.jpg,Blue_Star_Chess_4.jpg,Red_Plus_Grid_3.jpg,left,729.0499999653548,true,low,false
6f7Dkwgy,379ol9dbtvr9qb2hghaat1q2k68y9b,3xxu1swe8q8sljevrhi3mo3t13l0ax,6f7Dkwgy,2020-0188,2020-06-04,10:12:20,10:33:25,NA,incomplete,20,filling,0,1,right,Purple_Star_Stripes_4.jpg,Red_Plus_Dots_4.jpg,Blue_Circle_Stripes_3.jpg,right,699.6649999637157,true,low,false
6f7Dkwgy,379ol9dbtvr9qb2hghaat1q2k68y9b,3xxu1swe8q8sljevrhi3mo3t13l0ax,6f7Dkwgy,2020-0188,2020-06-04,10:12:20,10:33:25,NA,incomplete,21,filling,0,0,left,Green_Triangle_Dots_4.jpg,Blue_Star_Dots_2.jpg,Red_Circle_Grid_4.jpg,left,641.5750000160187,true,low,false
6f7Dkwgy,379ol9dbtvr9qb2hghaat1q2k68y9b,3xxu1swe8q8sljevrhi3mo3t13l0ax,6f7Dkwgy,2020-0188,2020-06-04,10:12:20,10:33:25,NA,incomplete,22,filling,0,1,left,Purple_Triangle_Grid_2.jpg,Blue_Plus_Grid_3.jpg,Red_Star_Stripes_2.jpg,left,893.114999984391,true,low,false
6f7Dkwgy,379ol9dbtvr9qb2hghaat1q2k68y9b,3xxu1swe8q8sljevrhi3mo3t13l0ax,6f7Dkwgy,2020-0188,2020-06-04,10:12:20,10:33:25,NA,incomplete,23,filling,0,1,right,Red_Plus_Dots_4.jpg,Green_Circle_Grid_4.jpg,Blue_Triangle_Dots_2.jpg,right,769.4300001021475,true,low,false
6f7Dkwgy,379ol9dbtvr9qb2hghaat1q2k68y9b,3xxu1swe8q8sljevrhi3mo3t13l0ax,6f7Dkwgy,2020-0188,2020-06-04,10:12:20,10:33:25,NA,incomplete,24,filling,0,0,right,Blue_Star_Dots_3.jpg,Red_Triangle_Chess_3.jpg,Purple_Circle_Dots_1.jpg,right,679.5699999202043,true,low,false
6f7Dkwgy,379ol9dbtvr9qb2hghaat1q2k68y9b,3xxu1swe8q8sljevrhi3mo3t13l0ax,6f7Dkwgy,2020-0188,2020-06-04,10:12:20,10:33:25,NA,incomplete,25,filling,0,1,left,Blue_Circle_Dots_1.jpg,Purple_Plus_Dots_4.jpg,Red_Triangle_Chess_1.jpg,left,787.7899999730289,true,low,false
6f7Dkwgy,379ol9dbtvr9qb2hghaat1q2k68y9b,3xxu1swe8q8sljevrhi3mo3t13l0ax,6f7Dkwgy,2020-0188,2020-06-04,10:12:20,10:33:25,NA,incomplete,26,filling,0,1,left,Red_Plus_Dots_4.jpg,Purple_Circle_Dots_1.jpg,Green_Star_Stripes_4.jpg,left,630.9099999489263,true,low,false
6f7Dkwgy,379ol9dbtvr9qb2hghaat1q2k68y9b,3xxu1swe8q8sljevrhi3mo3t13l0ax,6f7Dkwgy,2020-0188,2020-06-04,10:12:20,10:33:25,NA,incomplete,27,filling,0,0,right,Blue_Plus_Grid_3.jpg,Green_Triangle_Chess_3.jpg,Purple_Circle_Grid_1.jpg,right,705.5600000312552,true,low,false
6f7Dkwgy,379ol9dbtvr9qb2hghaat1q2k68y9b,3xxu1swe8q8sljevrhi3mo3t13l0ax,6f7Dkwgy,2020-0188,2020-06-04,10:12:20,10:33:25,NA,incomplete,28,filling,0,1,right,Blue_Circle_Grid_2.jpg,Red_Plus_Dots_2.jpg,Green_Triangle_Grid_3.jpg,right,710.8049999224022,true,low,false
6f7Dkwgy,379ol9dbtvr9qb2hghaat1q2k68y9b,3xxu1swe8q8sljevrhi3mo3t13l0ax,6f7Dkwgy,2020-0188,2020-06-04,10:12:20,10:33:25,NA,incomplete,29,filling,0,1,right,Red_Triangle_Chess_1.jpg,Green_Star_Stripes_1.jpg,Purple_Plus_Chess_2.jpg,left,694.870000006631,false,low,false
6f7Dkwgy,379ol9dbtvr9qb2hghaat1q2k68y9b,3xxu1swe8q8sljevrhi3mo3t13l0ax,6f7Dkwgy,2020-0188,2020-06-04,10:12:20,10:33:25,NA,incomplete,30,number,1,1,left,Purple_Triangle_Stripes_4.jpg,Red_Star_Grid_4.jpg,Green_Plus_Stripes_1.jpg,right,771.9800000777468,false,low,false
6f7Dkwgy,379ol9dbtvr9qb2hghaat1q2k68y9b,3xxu1swe8q8sljevrhi3mo3t13l0ax,6f7Dkwgy,2020-0188,2020-06-04,10:12:20,10:33:25,NA,incomplete,31,number,1,1,right,Green_Star_Chess_1.jpg,Red_Plus_Chess_3.jpg,Purple_Circle_Dots_1.jpg,left,647.9099999414757,false,low,false
6f7Dkwgy,379ol9dbtvr9qb2hghaat1q2k68y9b,3xxu1swe8q8sljevrhi3mo3t13l0ax,6f7Dkwgy,2020-0188,2020-06-04,10:12:20,10:33:25,NA,incomplete,32,number,1,1,right,Purple_Circle_Grid_4.jpg,Blue_Plus_Grid_2.jpg,Red_Star_Chess_4.jpg,right,824.2850000970066,true,low,false
6f7Dkwgy,379ol9dbtvr9qb2hghaat1q2k68y9b,3xxu1swe8q8sljevrhi3mo3t13l0ax,6f7Dkwgy,2020-0188,2020-06-04,10:12:20,10:33:25,NA,incomplete,33,number,1,1,right,Green_Plus_Stripes_4.jpg,Blue_Triangle_Stripes_3.jpg,Red_Star_Chess_4.jpg,right,672.1949999919161,true,low,false
6f7Dkwgy,379ol9dbtvr9qb2hghaat1q2k68y9b,3xxu1swe8q8sljevrhi3mo3t13l0ax,6f7Dkwgy,2020-0188,2020-06-04,10:12:20,10:33:25,NA,incomplete,34,number,1,1,left,Blue_Triangle_Dots_4.jpg,Red_Star_Grid_4.jpg,Purple_Circle_Dots_2.jpg,left,610.3850000072271,true,low,false
6f7Dkwgy,379ol9dbtvr9qb2hghaat1q2k68y9b,3xxu1swe8q8sljevrhi3mo3t13l0ax,6f7Dkwgy,2020-0188,2020-06-04,10:12:20,10:33:25,NA,incomplete,35,number,1,1,right,Blue_Triangle_Dots_1.jpg,Green_Plus_Dots_2.jpg,Purple_Circle_Chess_1.jpg,right,650.9700000751764,true,low,false
6f7Dkwgy,379ol9dbtvr9qb2hghaat1q2k68y9b,3xxu1swe8q8sljevrhi3mo3t13l0ax,6f7Dkwgy,2020-0188,2020-06-04,10:12:20,10:33:25,NA,incomplete,36,number,1,1,right,Green_Triangle_Dots_3.jpg,Blue_Circle_Dots_4.jpg,Red_Plus_Chess_3.jpg,right,643.3999999426305,true,low,false
6f7Dkwgy,379ol9dbtvr9qb2hghaat1q2k68y9b,3xxu1swe8q8sljevrhi3mo3t13l0ax,6f7Dkwgy,2020-0188,2020-06-04,10:12:20,10:33:25,NA,incomplete,37,number,1,1,right,Red_Plus_Grid_1.jpg,Blue_Triangle_Grid_2.jpg,Purple_Circle_Dots_1.jpg,right,715.5349999666214,true,low,false
6f7Dkwgy,379ol9dbtvr9qb2hghaat1q2k68y9b,3xxu1swe8q8sljevrhi3mo3t13l0ax,6f7Dkwgy,2020-0188,2020-06-04,10:12:20,10:33:25,NA,incomplete,38,number,1,0,left,Red_Triangle_Dots_4.jpg,Purple_Star_Grid_4.jpg,Blue_Circle_Dots_3.jpg,left,698.6150000011548,true,low,false
6f7Dkwgy,379ol9dbtvr9qb2hghaat1q2k68y9b,3xxu1swe8q8sljevrhi3mo3t13l0ax,6f7Dkwgy,2020-0188,2020-06-04,10:12:20,10:33:25,NA,incomplete,39,number,1,1,left,Blue_Plus_Chess_2.jpg,Red_Circle_Grid_2.jpg,Green_Star_Chess_4.jpg,left,538.7950000585988,true,low,false
6f7Dkwgy,379ol9dbtvr9qb2hghaat1q2k68y9b,3xxu1swe8q8sljevrhi3mo3t13l0ax,6f7Dkwgy,2020-0188,2020-06-04,10:12:20,10:33:25,NA,incomplete,40,number,1,0,right,Red_Plus_Chess_2.jpg,Purple_Triangle_Chess_3.jpg,Green_Star_Dots_2.jpg,right,782.2950000409037,true,low,false
6f7Dkwgy,379ol9dbtvr9qb2hghaat1q2k68y9b,3xxu1swe8q8sljevrhi3mo3t13l0ax,6f7Dkwgy,2020-0188,2020-06-04,10:12:20,10:33:25,NA,incomplete,41,number,1,0,right,Purple_Star_Chess_4.jpg,Red_Circle_Chess_1.jpg,Blue_Triangle_Dots_4.jpg,right,737.0799999916926,true,low,false
6f7Dkwgy,379ol9dbtvr9qb2hghaat1q2k68y9b,3xxu1swe8q8sljevrhi3mo3t13l0ax,6f7Dkwgy,2020-0188,2020-06-04,10:12:20,10:33:25,NA,incomplete,42,number,1,1,right,Blue_Triangle_Dots_3.jpg,Purple_Circle_Dots_4.jpg,Red_Plus_Grid_3.jpg,left,972.4600000772625,false,low,false
6f7Dkwgy,379ol9dbtvr9qb2hghaat1q2k68y9b,3xxu1swe8q8sljevrhi3mo3t13l0ax,6f7Dkwgy,2020-0188,2020-06-04,10:12:20,10:33:25,NA,incomplete,43,number,1,1,right,Green_Star_Chess_4.jpg,Blue_Plus_Chess_2.jpg,Red_Triangle_Stripes_4.jpg,left,687.4199999729171,false,low,false
6f7Dkwgy,379ol9dbtvr9qb2hghaat1q2k68y9b,3xxu1swe8q8sljevrhi3mo3t13l0ax,6f7Dkwgy,2020-0188,2020-06-04,10:12:20,10:33:25,NA,incomplete,44,number,1,1,left,Purple_Star_Chess_4.jpg,Blue_Circle_Dots_4.jpg,Green_Triangle_Chess_2.jpg,left,655.2500000689179,true,low,false
6f7Dkwgy,379ol9dbtvr9qb2hghaat1q2k68y9b,3xxu1swe8q8sljevrhi3mo3t13l0ax,6f7Dkwgy,2020-0188,2020-06-04,10:12:20,10:33:25,NA,incomplete,45,number,1,1,right,Blue_Circle_Grid_1.jpg,Red_Star_Grid_4.jpg,Green_Plus_Chess_1.jpg,right,550.58000003919,true,low,false
6f7Dkwgy,379ol9dbtvr9qb2hghaat1q2k68y9b,3xxu1swe8q8sljevrhi3mo3t13l0ax,6f7Dkwgy,2020-0188,2020-06-04,10:12:20,10:33:25,NA,incomplete,46,number,1,0,left,Purple_Plus_Dots_4.jpg,Green_Star_Grid_4.jpg,Red_Triangle_Dots_2.jpg,left,556.6349999280646,true,low,false
6f7Dkwgy,379ol9dbtvr9qb2hghaat1q2k68y9b,3xxu1swe8q8sljevrhi3mo3t13l0ax,6f7Dkwgy,2020-0188,2020-06-04,10:12:20,10:33:25,NA,incomplete,47,number,1,1,left,Red_Star_Grid_4.jpg,Green_Plus_Dots_4.jpg,Blue_Triangle_Grid_2.jpg,left,616.9199999421835,true,low,false
6f7Dkwgy,379ol9dbtvr9qb2hghaat1q2k68y9b,3xxu1swe8q8sljevrhi3mo3t13l0ax,6f7Dkwgy,2020-0188,2020-06-04,10:12:20,10:33:25,NA,incomplete,48,number,1,1,left,Red_Triangle_Dots_1.jpg,Blue_Plus_Grid_1.jpg,Green_Circle_Dots_2.jpg,left,514.1699999803677,true,low,false
6f7Dkwgy,379ol9dbtvr9qb2hghaat1q2k68y9b,3xxu1swe8q8sljevrhi3mo3t13l0ax,6f7Dkwgy,2020-0188,2020-06-04,10:12:20,10:33:25,NA,incomplete,49,number,1,0,right,Green_Plus_Chess_1.jpg,Red_Star_Chess_2.jpg,Purple_Triangle_Grid_1.jpg,right,561.9400000432506,true,low,false
6f7Dkwgy,379ol9dbtvr9qb2hghaat1q2k68y9b,3xxu1swe8q8sljevrhi3mo3t13l0ax,6f7Dkwgy,2020-0188,2020-06-04,10:12:20,10:33:25,NA,incomplete,50,number,1,0,right,Red_Plus_Grid_2.jpg,Purple_Star_Grid_3.jpg,Blue_Triangle_Dots_2.jpg,left,717.5749999005347,false,low,false
6f7Dkwgy,379ol9dbtvr9qb2hghaat1q2k68y9b,3xxu1swe8q8sljevrhi3mo3t13l0ax,6f7Dkwgy,2020-0188,2020-06-04,10:12:20,10:33:25,NA,incomplete,51,number,1,1,left,Green_Circle_Stripes_4.jpg,Red_Triangle_Grid_4.jpg,Purple_Plus_Stripes_1.jpg,left,691.095000016503,true,low,false
6f7Dkwgy,379ol9dbtvr9qb2hghaat1q2k68y9b,3xxu1swe8q8sljevrhi3mo3t13l0ax,6f7Dkwgy,2020-0188,2020-06-04,10:12:20,10:33:25,NA,incomplete,52,number,1,1,left,Red_Plus_Stripes_2.jpg,Blue_Star_Grid_2.jpg,Purple_Triangle_Stripes_3.jpg,right,783.9699999894947,false,low,false
6f7Dkwgy,379ol9dbtvr9qb2hghaat1q2k68y9b,3xxu1swe8q8sljevrhi3mo3t13l0ax,6f7Dkwgy,2020-0188,2020-06-04,10:12:20,10:33:25,NA,incomplete,53,number,1,1,left,Purple_Plus_Dots_4.jpg,Green_Circle_Stripes_4.jpg,Blue_Star_Dots_3.jpg,left,692.3749999841675,true,low,false
6f7Dkwgy,379ol9dbtvr9qb2hghaat1q2k68y9b,3xxu1swe8q8sljevrhi3mo3t13l0ax,6f7Dkwgy,2020-0188,2020-06-04,10:12:20,10:33:25,NA,incomplete,54,number,1,1,left,Red_Triangle_Dots_2.jpg,Blue_Circle_Chess_2.jpg,Green_Plus_Dots_4.jpg,left,618.6049999669194,true,low,false
6f7Dkwgy,379ol9dbtvr9qb2hghaat1q2k68y9b,3xxu1swe8q8sljevrhi3mo3t13l0ax,6f7Dkwgy,2020-0188,2020-06-04,10:12:20,10:33:25,NA,incomplete,55,number,1,1,left,Green_Plus_Chess_4.jpg,Purple_Triangle_Dots_4.jpg,Blue_Circle_Chess_1.jpg,left,733.3649999927729,true,low,false
6f7Dkwgy,379ol9dbtvr9qb2hghaat1q2k68y9b,3xxu1swe8q8sljevrhi3mo3t13l0ax,6f7Dkwgy,2020-0188,2020-06-04,10:12:20,10:33:25,NA,incomplete,56,number,1,1,right,Green_Plus_Stripes_1.jpg,Blue_Triangle_Stripes_4.jpg,Purple_Star_Chess_1.jpg,right,513.6499999789521,true,low,false
6f7Dkwgy,379ol9dbtvr9qb2hghaat1q2k68y9b,3xxu1swe8q8sljevrhi3mo3t13l0ax,6f7Dkwgy,2020-0188,2020-06-04,10:12:20,10:33:25,NA,incomplete,57,number,1,1,right,Purple_Triangle_Chess_1.jpg,Blue_Plus_Chess_2.jpg,Green_Circle_Stripes_1.jpg,right,545.3249999554828,true,low,false
6f7Dkwgy,379ol9dbtvr9qb2hghaat1q2k68y9b,3xxu1swe8q8sljevrhi3mo3t13l0ax,6f7Dkwgy,2020-0188,2020-06-04,10:12:20,10:33:25,NA,incomplete,58,number,1,0,right,Purple_Triangle_Dots_4.jpg,Green_Plus_Dots_1.jpg,Red_Star_Stripes_4.jpg,right,548.285000026226,true,low,false
6f7Dkwgy,379ol9dbtvr9qb2hghaat1q2k68y9b,3xxu1swe8q8sljevrhi3mo3t13l0ax,6f7Dkwgy,2020-0188,2020-06-04,10:12:20,10:33:25,NA,incomplete,59,number,1,0,left,Green_Star_Stripes_2.jpg,Red_Triangle_Grid_2.jpg,Purple_Circle_Stripes_4.jpg,left,667.4449999118224,true,low,false
6f7Dkwgy,379ol9dbtvr9qb2hghaat1q2k68y9b,3xxu1swe8q8sljevrhi3mo3t13l0ax,6f7Dkwgy,2020-0188,2020-06-04,10:12:20,10:33:25,NA,incomplete,60,filling,0,1,right,Green_Star_Stripes_1.jpg,Red_Circle_Chess_1.jpg,Purple_Plus_Stripes_3.jpg,right,778.5249999724329,true,low,false
6f7Dkwgy,379ol9dbtvr9qb2hghaat1q2k68y9b,3xxu1swe8q8sljevrhi3mo3t13l0ax,6f7Dkwgy,2020-0188,2020-06-04,10:12:20,10:33:25,NA,incomplete,61,filling,0,1,left,Purple_Plus_Grid_1.jpg,Blue_Star_Grid_2.jpg,Green_Triangle_Stripes_1.jpg,right,692.2999999951571,false,low,false
6f7Dkwgy,379ol9dbtvr9qb2hghaat1q2k68y9b,3xxu1swe8q8sljevrhi3mo3t13l0ax,6f7Dkwgy,2020-0188,2020-06-04,10:12:20,10:33:25,NA,incomplete,62,filling,0,1,left,Green_Plus_Chess_1.jpg,Blue_Star_Chess_4.jpg,Red_Triangle_Stripes_1.jpg,left,690.9949999535456,true,low,false
6f7Dkwgy,379ol9dbtvr9qb2hghaat1q2k68y9b,3xxu1swe8q8sljevrhi3mo3t13l0ax,6f7Dkwgy,2020-0188,2020-06-04,10:12:20,10:33:25,NA,incomplete,63,filling,0,1,left,Green_Triangle_Stripes_3.jpg,Red_Circle_Stripes_4.jpg,Blue_Star_Dots_3.jpg,left,770.9550000727177,true,low,false
6f7Dkwgy,379ol9dbtvr9qb2hghaat1q2k68y9b,3xxu1swe8q8sljevrhi3mo3t13l0ax,6f7Dkwgy,2020-0188,2020-06-04,10:12:20,10:33:25,NA,incomplete,64,filling,0,1,right,Purple_Circle_Stripes_3.jpg,Green_Star_Dots_3.jpg,Blue_Plus_Stripes_1.jpg,right,670.0999999884516,true,low,false
6f7Dkwgy,379ol9dbtvr9qb2hghaat1q2k68y9b,3xxu1swe8q8sljevrhi3mo3t13l0ax,6f7Dkwgy,2020-0188,2020-06-04,10:12:20,10:33:25,NA,incomplete,65,filling,0,0,right,Blue_Star_Stripes_2.jpg,Green_Plus_Grid_2.jpg,Red_Circle_Stripes_4.jpg,right,804.8900000285357,true,low,false
6f7Dkwgy,379ol9dbtvr9qb2hghaat1q2k68y9b,3xxu1swe8q8sljevrhi3mo3t13l0ax,6f7Dkwgy,2020-0188,2020-06-04,10:12:20,10:33:25,NA,incomplete,66,filling,0,1,left,Blue_Triangle_Stripes_3.jpg,Purple_Plus_Stripes_2.jpg,Green_Star_Chess_3.jpg,left,735.149999964051,true,low,false
6f7Dkwgy,379ol9dbtvr9qb2hghaat1q2k68y9b,3xxu1swe8q8sljevrhi3mo3t13l0ax,6f7Dkwgy,2020-0188,2020-06-04,10:12:20,10:33:25,NA,incomplete,67,filling,0,1,left,Red_Plus_Dots_4.jpg,Blue_Circle_Dots_2.jpg,Green_Triangle_Chess_4.jpg,left,651.8500000238419,true,low,false
6f7Dkwgy,379ol9dbtvr9qb2hghaat1q2k68y9b,3xxu1swe8q8sljevrhi3mo3t13l0ax,6f7Dkwgy,2020-0188,2020-06-04,10:12:20,10:33:25,NA,incomplete,68,filling,0,0,right,Green_Circle_Grid_1.jpg,Purple_Plus_Dots_1.jpg,Blue_Star_Grid_2.jpg,left,811.6750000044703,false,low,false
6f7Dkwgy,379ol9dbtvr9qb2hghaat1q2k68y9b,3xxu1swe8q8sljevrhi3mo3t13l0ax,6f7Dkwgy,2020-0188,2020-06-04,10:12:20,10:33:25,NA,incomplete,69,filling,0,1,right,Blue_Plus_Stripes_1.jpg,Red_Triangle_Dots_1.jpg,Purple_Circle_Stripes_3.jpg,left,686.5099999122322,false,low,false
6f7Dkwgy,379ol9dbtvr9qb2hghaat1q2k68y9b,3xxu1swe8q8sljevrhi3mo3t13l0ax,6f7Dkwgy,2020-0188,2020-06-04,10:12:20,10:33:25,NA,incomplete,70,filling,0,1,right,Red_Triangle_Stripes_4.jpg,Blue_Star_Chess_4.jpg,Green_Circle_Stripes_2.jpg,right,685.7249999884516,true,low,false
6f7Dkwgy,379ol9dbtvr9qb2hghaat1q2k68y9b,3xxu1swe8q8sljevrhi3mo3t13l0ax,6f7Dkwgy,2020-0188,2020-06-04,10:12:20,10:33:25,NA,incomplete,71,filling,0,1,right,Purple_Triangle_Stripes_4.jpg,Green_Star_Chess_4.jpg,Red_Circle_Stripes_1.jpg,right,676.729999948293,true,low,false
6f7Dkwgy,379ol9dbtvr9qb2hghaat1q2k68y9b,3xxu1swe8q8sljevrhi3mo3t13l0ax,6f7Dkwgy,2020-0188,2020-06-04,10:12:20,10:33:25,NA,incomplete,72,filling,0,0,right,Purple_Star_Dots_3.jpg,Green_Triangle_Stripes_3.jpg,Blue_Circle_Dots_4.jpg,right,755.9950000140816,true,low,false
6f7Dkwgy,379ol9dbtvr9qb2hghaat1q2k68y9b,3xxu1swe8q8sljevrhi3mo3t13l0ax,6f7Dkwgy,2020-0188,2020-06-04,10:12:20,10:33:25,NA,incomplete,73,filling,0,1,right,Blue_Plus_Grid_2.jpg,Red_Star_Dots_2.jpg,Purple_Circle_Grid_1.jpg,right,671.4249999495223,true,low,false
6f7Dkwgy,379ol9dbtvr9qb2hghaat1q2k68y9b,3xxu1swe8q8sljevrhi3mo3t13l0ax,6f7Dkwgy,2020-0188,2020-06-04,10:12:20,10:33:25,NA,incomplete,74,filling,0,1,left,Purple_Plus_Chess_1.jpg,Red_Circle_Chess_2.jpg,Green_Star_Grid_1.jpg,left,774.3550000013784,true,low,false
6f7Dkwgy,379ol9dbtvr9qb2hghaat1q2k68y9b,3xxu1swe8q8sljevrhi3mo3t13l0ax,6f7Dkwgy,2020-0188,2020-06-04,10:12:20,10:33:25,NA,incomplete,75,filling,0,1,left,Blue_Circle_Grid_1.jpg,Purple_Plus_Grid_2.jpg,Red_Triangle_Stripes_1.jpg,right,785.7150000054389,false,low,false
6f7Dkwgy,379ol9dbtvr9qb2hghaat1q2k68y9b,3xxu1swe8q8sljevrhi3mo3t13l0ax,6f7Dkwgy,2020-0188,2020-06-04,10:12:20,10:33:25,NA,incomplete,76,filling,0,1,left,Blue_Star_Chess_3.jpg,Green_Triangle_Chess_1.jpg,Purple_Circle_Grid_3.jpg,left,764.9899999378249,true,low,false
6f7Dkwgy,379ol9dbtvr9qb2hghaat1q2k68y9b,3xxu1swe8q8sljevrhi3mo3t13l0ax,6f7Dkwgy,2020-0188,2020-06-04,10:12:20,10:33:25,NA,incomplete,77,filling,0,1,right,Green_Triangle_Chess_2.jpg,Purple_Star_Dots_2.jpg,Blue_Circle_Chess_1.jpg,right,825.2700000302866,true,low,false
6f7Dkwgy,379ol9dbtvr9qb2hghaat1q2k68y9b,3xxu1swe8q8sljevrhi3mo3t13l0ax,6f7Dkwgy,2020-0188,2020-06-04,10:12:20,10:33:25,NA,incomplete,78,filling,0,1,left,Green_Triangle_Dots_2.jpg,Blue_Star_Dots_3.jpg,Red_Plus_Chess_2.jpg,left,778.2550000119954,true,low,false
6f7Dkwgy,379ol9dbtvr9qb2hghaat1q2k68y9b,3xxu1swe8q8sljevrhi3mo3t13l0ax,6f7Dkwgy,2020-0188,2020-06-04,10:12:20,10:33:25,NA,incomplete,79,filling,0,1,left,Blue_Triangle_Grid_4.jpg,Purple_Circle_Grid_1.jpg,Green_Plus_Stripes_4.jpg,left,614.2649999819696,true,low,false
6f7Dkwgy,379ol9dbtvr9qb2hghaat1q2k68y9b,3xxu1swe8q8sljevrhi3mo3t13l0ax,6f7Dkwgy,2020-0188,2020-06-04,10:12:20,10:33:25,NA,incomplete,80,filling,0,1,right,Blue_Triangle_Chess_4.jpg,Red_Circle_Grid_4.jpg,Green_Star_Chess_2.jpg,right,799.7800000011921,true,low,false
6f7Dkwgy,379ol9dbtvr9qb2hghaat1q2k68y9b,3xxu1swe8q8sljevrhi3mo3t13l0ax,6f7Dkwgy,2020-0188,2020-06-04,10:12:20,10:33:25,NA,incomplete,81,filling,0,1,right,Blue_Triangle_Stripes_4.jpg,Red_Circle_Dots_4.jpg,Green_Star_Stripes_2.jpg,right,658.9650000678375,true,low,false
6f7Dkwgy,379ol9dbtvr9qb2hghaat1q2k68y9b,3xxu1swe8q8sljevrhi3mo3t13l0ax,6f7Dkwgy,2020-0188,2020-06-04,10:12:20,10:33:25,NA,incomplete,82,filling,0,1,left,Red_Triangle_Stripes_1.jpg,Blue_Plus_Stripes_3.jpg,Purple_Star_Grid_1.jpg,left,810.1150000002235,true,low,false
6f7Dkwgy,379ol9dbtvr9qb2hghaat1q2k68y9b,3xxu1swe8q8sljevrhi3mo3t13l0ax,6f7Dkwgy,2020-0188,2020-06-04,10:12:20,10:33:25,NA,incomplete,83,filling,0,1,right,Purple_Triangle_Stripes_1.jpg,Green_Star_Chess_1.jpg,Red_Circle_Stripes_2.jpg,right,628.4049999667332,true,low,false
6f7Dkwgy,379ol9dbtvr9qb2hghaat1q2k68y9b,3xxu1swe8q8sljevrhi3mo3t13l0ax,6f7Dkwgy,2020-0188,2020-06-04,10:12:20,10:33:25,NA,incomplete,84,filling,0,1,left,Red_Circle_Dots_2.jpg,Blue_Plus_Dots_1.jpg,Purple_Triangle_Chess_2.jpg,left,639.2500000074506,true,low,false
6f7Dkwgy,379ol9dbtvr9qb2hghaat1q2k68y9b,3xxu1swe8q8sljevrhi3mo3t13l0ax,6f7Dkwgy,2020-0188,2020-06-04,10:12:20,10:33:25,NA,incomplete,85,filling,0,1,left,Blue_Plus_Stripes_4.jpg,Green_Triangle_Stripes_1.jpg,Purple_Star_Grid_4.jpg,right,741.965000052005,false,low,false
6f7Dkwgy,379ol9dbtvr9qb2hghaat1q2k68y9b,3xxu1swe8q8sljevrhi3mo3t13l0ax,6f7Dkwgy,2020-0188,2020-06-04,10:12:20,10:33:25,NA,incomplete,86,filling,0,1,right,Red_Plus_Grid_3.jpg,Blue_Star_Dots_3.jpg,Purple_Triangle_Grid_1.jpg,right,1003.3649998949841,true,low,false
6f7Dkwgy,379ol9dbtvr9qb2hghaat1q2k68y9b,3xxu1swe8q8sljevrhi3mo3t13l0ax,6f7Dkwgy,2020-0188,2020-06-04,10:12:20,10:33:25,NA,incomplete,87,filling,0,1,left,Red_Star_Stripes_1.jpg,Green_Circle_Stripes_4.jpg,Blue_Triangle_Grid_1.jpg,left,755.875000031665,true,low,false
6f7Dkwgy,379ol9dbtvr9qb2hghaat1q2k68y9b,3xxu1swe8q8sljevrhi3mo3t13l0ax,6f7Dkwgy,2020-0188,2020-06-04,10:12:20,10:33:25,NA,incomplete,88,filling,0,0,left,Green_Plus_Grid_3.jpg,Red_Star_Grid_2.jpg,Blue_Circle_Stripes_3.jpg,left,744.8399999411777,true,low,false
6f7Dkwgy,379ol9dbtvr9qb2hghaat1q2k68y9b,3xxu1swe8q8sljevrhi3mo3t13l0ax,6f7Dkwgy,2020-0188,2020-06-04,10:12:20,10:33:25,NA,incomplete,89,filling,0,1,left,Green_Triangle_Stripes_1.jpg,Purple_Star_Stripes_4.jpg,Red_Plus_Grid_1.jpg,left,741.1800000118092,true,low,false
6f7Dkwgy,379ol9dbtvr9qb2hghaat1q2k68y9b,3xxu1swe8q8sljevrhi3mo3t13l0ax,6f7Dkwgy,2020-0188,2020-06-04,10:12:20,10:33:25,NA,incomplete,90,number,1,1,left,Green_Star_Chess_1.jpg,Red_Plus_Dots_1.jpg,Blue_Triangle_Chess_4.jpg,left,736.6250000195578,true,low,false
6f7Dkwgy,379ol9dbtvr9qb2hghaat1q2k68y9b,3xxu1swe8q8sljevrhi3mo3t13l0ax,6f7Dkwgy,2020-0188,2020-06-04,10:12:20,10:33:25,NA,incomplete,91,number,1,1,right,Green_Star_Grid_4.jpg,Purple_Circle_Grid_3.jpg,Red_Plus_Dots_4.jpg,left,742.1649999450892,false,low,false
6f7Dkwgy,379ol9dbtvr9qb2hghaat1q2k68y9b,3xxu1swe8q8sljevrhi3mo3t13l0ax,6f7Dkwgy,2020-0188,2020-06-04,10:12:20,10:33:25,NA,incomplete,92,number,1,1,right,Blue_Plus_Stripes_2.jpg,Purple_Circle_Stripes_4.jpg,Green_Triangle_Grid_2.jpg,right,593.8400001032278,true,low,false
6f7Dkwgy,379ol9dbtvr9qb2hghaat1q2k68y9b,3xxu1swe8q8sljevrhi3mo3t13l0ax,6f7Dkwgy,2020-0188,2020-06-04,10:12:20,10:33:25,NA,incomplete,93,number,1,1,left,Purple_Star_Stripes_4.jpg,Green_Circle_Grid_4.jpg,Red_Plus_Stripes_2.jpg,left,709.9999999627471,true,low,false
6f7Dkwgy,379ol9dbtvr9qb2hghaat1q2k68y9b,3xxu1swe8q8sljevrhi3mo3t13l0ax,6f7Dkwgy,2020-0188,2020-06-04,10:12:20,10:33:25,NA,incomplete,94,number,1,1,left,Purple_Triangle_Dots_2.jpg,Red_Star_Grid_2.jpg,Blue_Circle_Dots_3.jpg,left,563.5699999984354,true,low,false
6f7Dkwgy,379ol9dbtvr9qb2hghaat1q2k68y9b,3xxu1swe8q8sljevrhi3mo3t13l0ax,6f7Dkwgy,2020-0188,2020-06-04,10:12:20,10:33:25,NA,incomplete,95,number,1,1,left,Red_Star_Stripes_3.jpg,Green_Circle_Chess_3.jpg,Blue_Plus_Stripes_2.jpg,left,631.070000003092,true,low,false
6f7Dkwgy,379ol9dbtvr9qb2hghaat1q2k68y9b,3xxu1swe8q8sljevrhi3mo3t13l0ax,6f7Dkwgy,2020-0188,2020-06-04,10:12:20,10:33:25,NA,incomplete,96,number,1,0,left,Purple_Triangle_Grid_1.jpg,Red_Circle_Dots_1.jpg,Blue_Star_Grid_4.jpg,left,577.5950000388548,true,low,false
6f7Dkwgy,379ol9dbtvr9qb2hghaat1q2k68y9b,3xxu1swe8q8sljevrhi3mo3t13l0ax,6f7Dkwgy,2020-0188,2020-06-04,10:12:20,10:33:25,NA,incomplete,97,number,1,0,right,Purple_Triangle_Stripes_1.jpg,Green_Circle_Stripes_4.jpg,Red_Plus_Dots_1.jpg,right,558.3700001006946,true,low,false
6f7Dkwgy,379ol9dbtvr9qb2hghaat1q2k68y9b,3xxu1swe8q8sljevrhi3mo3t13l0ax,6f7Dkwgy,2020-0188,2020-06-04,10:12:20,10:33:25,NA,incomplete,98,number,1,1,right,Blue_Star_Chess_4.jpg,Red_Triangle_Chess_2.jpg,Purple_Circle_Stripes_4.jpg,left,641.3549999706447,false,low,false
6f7Dkwgy,379ol9dbtvr9qb2hghaat1q2k68y9b,3xxu1swe8q8sljevrhi3mo3t13l0ax,6f7Dkwgy,2020-0188,2020-06-04,10:12:20,10:33:25,NA,incomplete,99,number,1,1,right,Purple_Circle_Stripes_1.jpg,Red_Plus_Stripes_3.jpg,Blue_Triangle_Dots_1.jpg,left,715.4199999058619,false,low,false
6f7Dkwgy,379ol9dbtvr9qb2hghaat1q2k68y9b,3xxu1swe8q8sljevrhi3mo3t13l0ax,6f7Dkwgy,2020-0188,2020-06-04,10:12:20,10:33:25,NA,incomplete,100,number,1,1,right,Blue_Triangle_Chess_2.jpg,Green_Star_Chess_4.jpg,Red_Plus_Grid_2.jpg,right,638.7149998918176,true,low,false
6f7Dkwgy,379ol9dbtvr9qb2hghaat1q2k68y9b,3xxu1swe8q8sljevrhi3mo3t13l0ax,6f7Dkwgy,2020-0188,2020-06-04,10:12:20,10:33:25,NA,incomplete,101,number,1,0,left,Purple_Star_Dots_2.jpg,Red_Circle_Stripes_2.jpg,Blue_Plus_Dots_4.jpg,left,512.4399999622256,true,low,false
6f7Dkwgy,379ol9dbtvr9qb2hghaat1q2k68y9b,3xxu1swe8q8sljevrhi3mo3t13l0ax,6f7Dkwgy,2020-0188,2020-06-04,10:12:20,10:33:25,NA,incomplete,102,number,1,1,right,Green_Circle_Stripes_4.jpg,Blue_Plus_Stripes_1.jpg,Purple_Triangle_Grid_4.jpg,right,661.3849999848753,true,low,false
6f7Dkwgy,379ol9dbtvr9qb2hghaat1q2k68y9b,3xxu1swe8q8sljevrhi3mo3t13l0ax,6f7Dkwgy,2020-0188,2020-06-04,10:12:20,10:33:25,NA,incomplete,103,number,1,1,right,Green_Circle_Dots_1.jpg,Blue_Star_Dots_2.jpg,Red_Triangle_Chess_1.jpg,right,550.6550000282004,true,low,false
6f7Dkwgy,379ol9dbtvr9qb2hghaat1q2k68y9b,3xxu1swe8q8sljevrhi3mo3t13l0ax,6f7Dkwgy,2020-0188,2020-06-04,10:12:20,10:33:25,NA,incomplete,104,number,1,1,left,Red_Plus_Stripes_1.jpg,Purple_Circle_Dots_1.jpg,Green_Star_Stripes_3.jpg,left,467.98499999567866,true,low,false
6f7Dkwgy,379ol9dbtvr9qb2hghaat1q2k68y9b,3xxu1swe8q8sljevrhi3mo3t13l0ax,6f7Dkwgy,2020-0188,2020-06-04,10:12:20,10:33:25,NA,incomplete,105,number,1,1,right,Red_Plus_Dots_4.jpg,Blue_Triangle_Dots_2.jpg,Green_Star_Chess_4.jpg,right,635.2800000458956,true,low,false
6f7Dkwgy,379ol9dbtvr9qb2hghaat1q2k68y9b,3xxu1swe8q8sljevrhi3mo3t13l0ax,6f7Dkwgy,2020-0188,2020-06-04,10:12:20,10:33:25,NA,incomplete,106,number,1,0,right,Purple_Star_Dots_4.jpg,Green_Plus_Dots_2.jpg,Blue_Circle_Stripes_4.jpg,right,507.77500006370246,true,low,false
6f7Dkwgy,379ol9dbtvr9qb2hghaat1q2k68y9b,3xxu1swe8q8sljevrhi3mo3t13l0ax,6f7Dkwgy,2020-0188,2020-06-04,10:12:20,10:33:25,NA,incomplete,107,number,1,1,right,Purple_Plus_Stripes_4.jpg,Red_Circle_Stripes_2.jpg,Green_Triangle_Dots_4.jpg,right,561.4350000396371,true,low,false
6f7Dkwgy,379ol9dbtvr9qb2hghaat1q2k68y9b,3xxu1swe8q8sljevrhi3mo3t13l0ax,6f7Dkwgy,2020-0188,2020-06-04,10:12:20,10:33:25,NA,incomplete,108,number,1,0,right,Red_Plus_Dots_3.jpg,Green_Circle_Dots_2.jpg,Blue_Star_Grid_3.jpg,left,597.5350000662729,false,low,false
6f7Dkwgy,379ol9dbtvr9qb2hghaat1q2k68y9b,3xxu1swe8q8sljevrhi3mo3t13l0ax,6f7Dkwgy,2020-0188,2020-06-04,10:12:20,10:33:25,NA,incomplete,109,number,1,1,right,Red_Star_Grid_1.jpg,Green_Triangle_Grid_4.jpg,Blue_Plus_Chess_1.jpg,left,723.3499999856576,false,low,false
6f7Dkwgy,379ol9dbtvr9qb2hghaat1q2k68y9b,3xxu1swe8q8sljevrhi3mo3t13l0ax,6f7Dkwgy,2020-0188,2020-06-04,10:12:20,10:33:25,NA,incomplete,110,number,1,1,left,Red_Plus_Grid_2.jpg,Green_Triangle_Stripes_2.jpg,Blue_Circle_Grid_3.jpg,left,628.8799999747425,true,low,false
6f7Dkwgy,379ol9dbtvr9qb2hghaat1q2k68y9b,3xxu1swe8q8sljevrhi3mo3t13l0ax,6f7Dkwgy,2020-0188,2020-06-04,10:12:20,10:33:25,NA,incomplete,111,number,1,0,left,Green_Circle_Stripes_4.jpg,Purple_Triangle_Dots_4.jpg,Red_Star_Stripes_2.jpg,left,640.2400000952184,true,low,false
6f7Dkwgy,379ol9dbtvr9qb2hghaat1q2k68y9b,3xxu1swe8q8sljevrhi3mo3t13l0ax,6f7Dkwgy,2020-0188,2020-06-04,10:12:20,10:33:25,NA,incomplete,112,number,1,1,right,Blue_Triangle_Stripes_3.jpg,Green_Plus_Stripes_2.jpg,Purple_Star_Dots_3.jpg,right,737.0100000407547,true,low,false
6f7Dkwgy,379ol9dbtvr9qb2hghaat1q2k68y9b,3xxu1swe8q8sljevrhi3mo3t13l0ax,6f7Dkwgy,2020-0188,2020-06-04,10:12:20,10:33:25,NA,incomplete,113,number,1,1,right,Green_Circle_Chess_3.jpg,Purple_Star_Chess_1.jpg,Red_Triangle_Grid_3.jpg,right,613.0350000457838,true,low,false
6f7Dkwgy,379ol9dbtvr9qb2hghaat1q2k68y9b,3xxu1swe8q8sljevrhi3mo3t13l0ax,6f7Dkwgy,2020-0188,2020-06-04,10:12:20,10:33:25,NA,incomplete,114,number,1,1,left,Blue_Circle_Stripes_2.jpg,Purple_Plus_Grid_2.jpg,Green_Triangle_Stripes_4.jpg,left,529.0050000185147,true,low,false
6f7Dkwgy,379ol9dbtvr9qb2hghaat1q2k68y9b,3xxu1swe8q8sljevrhi3mo3t13l0ax,6f7Dkwgy,2020-0188,2020-06-04,10:12:20,10:33:25,NA,incomplete,115,number,1,1,right,Green_Circle_Stripes_3.jpg,Red_Plus_Stripes_1.jpg,Purple_Star_Chess_3.jpg,right,619.3850000854582,true,low,false
6f7Dkwgy,379ol9dbtvr9qb2hghaat1q2k68y9b,3xxu1swe8q8sljevrhi3mo3t13l0ax,6f7Dkwgy,2020-0188,2020-06-04,10:12:20,10:33:25,NA,incomplete,116,number,1,1,left,Red_Circle_Stripes_4.jpg,Green_Star_Grid_4.jpg,Blue_Triangle_Stripes_3.jpg,left,614.5750000141561,true,low,false
6f7Dkwgy,379ol9dbtvr9qb2hghaat1q2k68y9b,3xxu1swe8q8sljevrhi3mo3t13l0ax,6f7Dkwgy,2020-0188,2020-06-04,10:12:20,10:33:25,NA,incomplete,117,number,1,0,left,Blue_Star_Stripes_3.jpg,Purple_Circle_Chess_3.jpg,Green_Triangle_Stripes_1.jpg,left,672.2999999765307,true,low,false
6f7Dkwgy,379ol9dbtvr9qb2hghaat1q2k68y9b,3xxu1swe8q8sljevrhi3mo3t13l0ax,6f7Dkwgy,2020-0188,2020-06-04,10:12:20,10:33:25,NA,incomplete,118,number,1,1,right,Blue_Triangle_Grid_2.jpg,Green_Star_Grid_3.jpg,Red_Plus_Chess_2.jpg,left,589.9399999761954,false,low,false
6f7Dkwgy,379ol9dbtvr9qb2hghaat1q2k68y9b,3xxu1swe8q8sljevrhi3mo3t13l0ax,6f7Dkwgy,2020-0188,2020-06-04,10:12:20,10:33:25,NA,incomplete,119,number,1,1,left,Blue_Star_Grid_3.jpg,Red_Circle_Dots_3.jpg,Purple_Triangle_Grid_2.jpg,left,609.8699999274686,true,low,false
6f7Dkwgy,379ol9dbtvr9qb2hghaat1q2k68y9b,3xxu1swe8q8sljevrhi3mo3t13l0ax,6f7Dkwgy,2020-0188,2020-06-04,10:12:20,10:33:25,NA,incomplete,120,race,2,0,left,C_M_11.jpg,C_F_15.jpg,A_M_13.jpg,NA,NA,NA,low,false
6f7Dkwgy,379ol9dbtvr9qb2hghaat1q2k68y9b,3xxu1swe8q8sljevrhi3mo3t13l0ax,6f7Dkwgy,2020-0188,2020-06-04,10:12:20,10:33:25,NA,incomplete,121,race,2,1,left,C_M_06.jpg,C_F_07.jpg,A_M_15.jpg,left,943.6599999899045,true,low,false
6f7Dkwgy,379ol9dbtvr9qb2hghaat1q2k68y9b,3xxu1swe8q8sljevrhi3mo3t13l0ax,6f7Dkwgy,2020-0188,2020-06-04,10:12:20,10:33:25,NA,incomplete,122,race,2,1,right,A_M_16.jpg,C_M_15.jpg,A_F_01.jpg,left,970.8999999566004,false,low,false
6f7Dkwgy,379ol9dbtvr9qb2hghaat1q2k68y9b,3xxu1swe8q8sljevrhi3mo3t13l0ax,6f7Dkwgy,2020-0188,2020-06-04,10:12:20,10:33:25,NA,incomplete,123,race,2,1,right,A_F_04.jpg,C_F_08.jpg,A_M_03.jpg,right,935.6400000397116,true,low,false
6f7Dkwgy,379ol9dbtvr9qb2hghaat1q2k68y9b,3xxu1swe8q8sljevrhi3mo3t13l0ax,6f7Dkwgy,2020-0188,2020-06-04,10:12:20,10:33:25,NA,incomplete,124,race,2,1,left,C_M_05.jpg,C_F_14.jpg,A_M_03.jpg,left,716.175000066869,true,low,false
6f7Dkwgy,379ol9dbtvr9qb2hghaat1q2k68y9b,3xxu1swe8q8sljevrhi3mo3t13l0ax,6f7Dkwgy,2020-0188,2020-06-04,10:12:20,10:33:25,NA,incomplete,125,race,2,1,left,C_M_01.jpg,C_F_04.jpg,A_M_02.jpg,left,626.2149999383837,true,low,false
6f7Dkwgy,379ol9dbtvr9qb2hghaat1q2k68y9b,3xxu1swe8q8sljevrhi3mo3t13l0ax,6f7Dkwgy,2020-0188,2020-06-04,10:12:20,10:33:25,NA,incomplete,126,race,2,0,left,A_M_08.jpg,A_F_12.jpg,C_M_16.jpg,left,859.3849999597296,true,low,false
6f7Dkwgy,379ol9dbtvr9qb2hghaat1q2k68y9b,3xxu1swe8q8sljevrhi3mo3t13l0ax,6f7Dkwgy,2020-0188,2020-06-04,10:12:20,10:33:25,NA,incomplete,127,race,2,1,left,C_F_12.jpg,C_M_04.jpg,A_F_02.jpg,right,706.1249999096617,false,low,false
6f7Dkwgy,379ol9dbtvr9qb2hghaat1q2k68y9b,3xxu1swe8q8sljevrhi3mo3t13l0ax,6f7Dkwgy,2020-0188,2020-06-04,10:12:20,10:33:25,NA,incomplete,128,race,2,1,right,C_M_03.jpg,A_M_13.jpg,C_F_09.jpg,right,739.2649999819696,true,low,false
6f7Dkwgy,379ol9dbtvr9qb2hghaat1q2k68y9b,3xxu1swe8q8sljevrhi3mo3t13l0ax,6f7Dkwgy,2020-0188,2020-06-04,10:12:20,10:33:25,NA,incomplete,129,race,2,0,right,A_M_10.jpg,C_M_04.jpg,A_F_14.jpg,right,726.204999955371,true,low,false
6f7Dkwgy,379ol9dbtvr9qb2hghaat1q2k68y9b,3xxu1swe8q8sljevrhi3mo3t13l0ax,6f7Dkwgy,2020-0188,2020-06-04,10:12:20,10:33:25,NA,incomplete,130,race,2,1,right,C_F_03.jpg,A_F_08.jpg,C_M_04.jpg,right,771.6400000499561,true,low,false
6f7Dkwgy,379ol9dbtvr9qb2hghaat1q2k68y9b,3xxu1swe8q8sljevrhi3mo3t13l0ax,6f7Dkwgy,2020-0188,2020-06-04,10:12:20,10:33:25,NA,incomplete,131,race,2,1,left,C_M_13.jpg,C_F_01.jpg,A_M_08.jpg,left,726.935000042431,true,low,false
6f7Dkwgy,379ol9dbtvr9qb2hghaat1q2k68y9b,3xxu1swe8q8sljevrhi3mo3t13l0ax,6f7Dkwgy,2020-0188,2020-06-04,10:12:20,10:33:25,NA,incomplete,132,race,2,1,right,A_M_11.jpg,C_M_08.jpg,A_F_01.jpg,right,756.5500000491738,true,low,false
6f7Dkwgy,379ol9dbtvr9qb2hghaat1q2k68y9b,3xxu1swe8q8sljevrhi3mo3t13l0ax,6f7Dkwgy,2020-0188,2020-06-04,10:12:20,10:33:25,NA,incomplete,133,race,2,1,right,C_M_11.jpg,A_M_08.jpg,C_F_07.jpg,right,713.2300001103431,true,low,false
6f7Dkwgy,379ol9dbtvr9qb2hghaat1q2k68y9b,3xxu1swe8q8sljevrhi3mo3t13l0ax,6f7Dkwgy,2020-0188,2020-06-04,10:12:20,10:33:25,NA,incomplete,134,race,2,1,right,C_M_12.jpg,A_M_16.jpg,C_F_13.jpg,right,629.8200000310317,true,low,false
6f7Dkwgy,379ol9dbtvr9qb2hghaat1q2k68y9b,3xxu1swe8q8sljevrhi3mo3t13l0ax,6f7Dkwgy,2020-0188,2020-06-04,10:12:20,10:33:25,NA,incomplete,135,race,2,1,right,C_F_16.jpg,A_F_14.jpg,C_M_07.jpg,left,670.6199999898672,false,low,false
6f7Dkwgy,379ol9dbtvr9qb2hghaat1q2k68y9b,3xxu1swe8q8sljevrhi3mo3t13l0ax,6f7Dkwgy,2020-0188,2020-06-04,10:12:20,10:33:25,NA,incomplete,136,race,2,1,left,C_M_07.jpg,C_F_16.jpg,A_M_05.jpg,left,670.6299999495968,true,low,false
6f7Dkwgy,379ol9dbtvr9qb2hghaat1q2k68y9b,3xxu1swe8q8sljevrhi3mo3t13l0ax,6f7Dkwgy,2020-0188,2020-06-04,10:12:20,10:33:25,NA,incomplete,137,race,2,1,right,C_M_06.jpg,A_M_08.jpg,C_F_16.jpg,right,684.830000041984,true,low,false
6f7Dkwgy,379ol9dbtvr9qb2hghaat1q2k68y9b,3xxu1swe8q8sljevrhi3mo3t13l0ax,6f7Dkwgy,2020-0188,2020-06-04,10:12:20,10:33:25,NA,incomplete,138,race,2,1,left,A_F_03.jpg,A_M_06.jpg,C_F_13.jpg,left,718.6499999370426,true,low,false
6f7Dkwgy,379ol9dbtvr9qb2hghaat1q2k68y9b,3xxu1swe8q8sljevrhi3mo3t13l0ax,6f7Dkwgy,2020-0188,2020-06-04,10:12:20,10:33:25,NA,incomplete,139,race,2,1,right,C_F_10.jpg,A_F_08.jpg,C_M_02.jpg,right,849.5250000851229,true,low,false
6f7Dkwgy,379ol9dbtvr9qb2hghaat1q2k68y9b,3xxu1swe8q8sljevrhi3mo3t13l0ax,6f7Dkwgy,2020-0188,2020-06-04,10:12:20,10:33:25,NA,incomplete,140,gender,3,1,right,A_F_07.jpg,A_M_16.jpg,C_F_03.jpg,left,811.2549999495968,false,low,false
6f7Dkwgy,379ol9dbtvr9qb2hghaat1q2k68y9b,3xxu1swe8q8sljevrhi3mo3t13l0ax,6f7Dkwgy,2020-0188,2020-06-04,10:12:20,10:33:25,NA,incomplete,141,gender,3,1,right,C_F_05.jpg,C_M_04.jpg,A_F_07.jpg,left,780.0250001018867,false,low,false
6f7Dkwgy,379ol9dbtvr9qb2hghaat1q2k68y9b,3xxu1swe8q8sljevrhi3mo3t13l0ax,6f7Dkwgy,2020-0188,2020-06-04,10:12:20,10:33:25,NA,incomplete,142,gender,3,0,right,A_M_14.jpg,A_F_03.jpg,C_M_09.jpg,left,704.5150001067668,false,low,false
6f7Dkwgy,379ol9dbtvr9qb2hghaat1q2k68y9b,3xxu1swe8q8sljevrhi3mo3t13l0ax,6f7Dkwgy,2020-0188,2020-06-04,10:12:20,10:33:25,NA,incomplete,143,gender,3,1,right,C_F_03.jpg,C_M_10.jpg,A_F_12.jpg,left,614.7849999833852,false,low,false
6f7Dkwgy,379ol9dbtvr9qb2hghaat1q2k68y9b,3xxu1swe8q8sljevrhi3mo3t13l0ax,6f7Dkwgy,2020-0188,2020-06-04,10:12:20,10:33:25,NA,incomplete,144,gender,3,1,right,A_F_10.jpg,A_M_03.jpg,C_F_08.jpg,left,672.6950000738725,false,low,false
6f7Dkwgy,379ol9dbtvr9qb2hghaat1q2k68y9b,3xxu1swe8q8sljevrhi3mo3t13l0ax,6f7Dkwgy,2020-0188,2020-06-04,10:12:20,10:33:25,NA,incomplete,145,gender,3,1,right,C_F_13.jpg,C_M_01.jpg,A_F_15.jpg,left,775.7849999470636,false,low,false
6f7Dkwgy,379ol9dbtvr9qb2hghaat1q2k68y9b,3xxu1swe8q8sljevrhi3mo3t13l0ax,6f7Dkwgy,2020-0188,2020-06-04,10:12:20,10:33:25,NA,incomplete,146,gender,3,1,left,C_M_13.jpg,A_M_09.jpg,C_F_10.jpg,left,747.2899999702349,true,low,false
6f7Dkwgy,379ol9dbtvr9qb2hghaat1q2k68y9b,3xxu1swe8q8sljevrhi3mo3t13l0ax,6f7Dkwgy,2020-0188,2020-06-04,10:12:20,10:33:25,NA,incomplete,147,gender,3,1,right,A_F_03.jpg,A_M_16.jpg,C_F_01.jpg,right,712.290000054054,true,low,false
6f7Dkwgy,379ol9dbtvr9qb2hghaat1q2k68y9b,3xxu1swe8q8sljevrhi3mo3t13l0ax,6f7Dkwgy,2020-0188,2020-06-04,10:12:20,10:33:25,NA,incomplete,148,gender,3,1,left,C_F_07.jpg,A_F_04.jpg,C_M_01.jpg,left,775.5799998994917,true,low,false
6f7Dkwgy,379ol9dbtvr9qb2hghaat1q2k68y9b,3xxu1swe8q8sljevrhi3mo3t13l0ax,6f7Dkwgy,2020-0188,2020-06-04,10:12:20,10:33:25,NA,incomplete,149,gender,3,1,left,A_M_05.jpg,C_M_10.jpg,A_F_15.jpg,left,591.6599999181926,true,low,false
6f7Dkwgy,379ol9dbtvr9qb2hghaat1q2k68y9b,3xxu1swe8q8sljevrhi3mo3t13l0ax,6f7Dkwgy,2020-0188,2020-06-04,10:12:20,10:33:25,NA,incomplete,150,gender,3,1,left,A_M_14.jpg,C_M_04.jpg,A_F_08.jpg,left,650.5700000561774,true,low,false
6f7Dkwgy,379ol9dbtvr9qb2hghaat1q2k68y9b,3xxu1swe8q8sljevrhi3mo3t13l0ax,6f7Dkwgy,2020-0188,2020-06-04,10:12:20,10:33:25,NA,incomplete,151,gender,3,1,left,A_M_02.jpg,C_M_12.jpg,A_F_05.jpg,left,619.840000057593,true,low,false
6f7Dkwgy,379ol9dbtvr9qb2hghaat1q2k68y9b,3xxu1swe8q8sljevrhi3mo3t13l0ax,6f7Dkwgy,2020-0188,2020-06-04,10:12:20,10:33:25,NA,incomplete,152,gender,3,1,left,A_F_06.jpg,C_F_15.jpg,A_M_02.jpg,left,621.8799999915063,true,low,false
6f7Dkwgy,379ol9dbtvr9qb2hghaat1q2k68y9b,3xxu1swe8q8sljevrhi3mo3t13l0ax,6f7Dkwgy,2020-0188,2020-06-04,10:12:20,10:33:25,NA,incomplete,153,gender,3,1,left,C_F_13.jpg,A_F_01.jpg,C_M_07.jpg,left,615.9549999283627,true,low,false
6f7Dkwgy,379ol9dbtvr9qb2hghaat1q2k68y9b,3xxu1swe8q8sljevrhi3mo3t13l0ax,6f7Dkwgy,2020-0188,2020-06-04,10:12:20,10:33:25,NA,incomplete,154,gender,3,0,left,C_F_13.jpg,A_F_07.jpg,C_M_16.jpg,left,704.7449999954551,true,low,false
6f7Dkwgy,379ol9dbtvr9qb2hghaat1q2k68y9b,3xxu1swe8q8sljevrhi3mo3t13l0ax,6f7Dkwgy,2020-0188,2020-06-04,10:12:20,10:33:25,NA,incomplete,155,gender,3,1,left,A_M_08.jpg,C_M_13.jpg,A_F_09.jpg,left,686.8850000901148,true,low,false
6f7Dkwgy,379ol9dbtvr9qb2hghaat1q2k68y9b,3xxu1swe8q8sljevrhi3mo3t13l0ax,6f7Dkwgy,2020-0188,2020-06-04,10:12:20,10:33:25,NA,incomplete,156,gender,3,1,left,A_M_01.jpg,C_M_03.jpg,A_F_11.jpg,left,669.5649999892339,true,low,false
6f7Dkwgy,379ol9dbtvr9qb2hghaat1q2k68y9b,3xxu1swe8q8sljevrhi3mo3t13l0ax,6f7Dkwgy,2020-0188,2020-06-04,10:12:20,10:33:25,NA,incomplete,157,gender,3,1,left,C_M_06.jpg,A_M_13.jpg,C_F_05.jpg,left,748.9800000330433,true,low,false
6f7Dkwgy,379ol9dbtvr9qb2hghaat1q2k68y9b,3xxu1swe8q8sljevrhi3mo3t13l0ax,6f7Dkwgy,2020-0188,2020-06-04,10:12:20,10:33:25,NA,incomplete,158,gender,3,1,left,C_F_04.jpg,A_F_08.jpg,C_M_06.jpg,left,649.7250000247732,true,low,false
6f7Dkwgy,379ol9dbtvr9qb2hghaat1q2k68y9b,3xxu1swe8q8sljevrhi3mo3t13l0ax,6f7Dkwgy,2020-0188,2020-06-04,10:12:20,10:33:25,NA,incomplete,159,gender,3,1,left,C_F_12.jpg,A_F_11.jpg,C_M_01.jpg,left,728.9900000905618,true,low,false
6f7Dkwgy,379ol9dbtvr9qb2hghaat1q2k68y9b,3xxu1swe8q8sljevrhi3mo3t13l0ax,6f7Dkwgy,2020-0188,2020-06-04,10:12:20,10:33:25,NA,incomplete,160,race,2,0,left,C_M_09.jpg,C_F_08.jpg,A_M_10.jpg,right,751.7450000159442,false,low,false
6f7Dkwgy,379ol9dbtvr9qb2hghaat1q2k68y9b,3xxu1swe8q8sljevrhi3mo3t13l0ax,6f7Dkwgy,2020-0188,2020-06-04,10:12:20,10:33:25,NA,incomplete,161,race,2,1,right,C_F_13.jpg,A_F_03.jpg,C_M_06.jpg,left,625.4099999787286,false,low,false
6f7Dkwgy,379ol9dbtvr9qb2hghaat1q2k68y9b,3xxu1swe8q8sljevrhi3mo3t13l0ax,6f7Dkwgy,2020-0188,2020-06-04,10:12:20,10:33:25,NA,incomplete,162,race,2,0,right,C_M_12.jpg,A_M_03.jpg,C_F_01.jpg,left,589.159999974072,false,low,false
6f7Dkwgy,379ol9dbtvr9qb2hghaat1q2k68y9b,3xxu1swe8q8sljevrhi3mo3t13l0ax,6f7Dkwgy,2020-0188,2020-06-04,10:12:20,10:33:25,NA,incomplete,163,race,2,1,right,A_M_03.jpg,C_M_14.jpg,A_F_07.jpg,left,769.3900000303984,false,low,false
6f7Dkwgy,379ol9dbtvr9qb2hghaat1q2k68y9b,3xxu1swe8q8sljevrhi3mo3t13l0ax,6f7Dkwgy,2020-0188,2020-06-04,10:12:20,10:33:25,NA,incomplete,164,race,2,1,left,C_M_05.jpg,C_F_03.jpg,A_M_10.jpg,right,666.5000000502914,false,low,false
6f7Dkwgy,379ol9dbtvr9qb2hghaat1q2k68y9b,3xxu1swe8q8sljevrhi3mo3t13l0ax,6f7Dkwgy,2020-0188,2020-06-04,10:12:20,10:33:25,NA,incomplete,165,race,2,1,right,A_F_13.jpg,C_F_06.jpg,A_M_14.jpg,right,859.1049999231473,true,low,false
6f7Dkwgy,379ol9dbtvr9qb2hghaat1q2k68y9b,3xxu1swe8q8sljevrhi3mo3t13l0ax,6f7Dkwgy,2020-0188,2020-06-04,10:12:20,10:33:25,NA,incomplete,166,race,2,1,right,A_F_08.jpg,C_F_01.jpg,A_M_02.jpg,right,651.5099999960512,true,low,false
6f7Dkwgy,379ol9dbtvr9qb2hghaat1q2k68y9b,3xxu1swe8q8sljevrhi3mo3t13l0ax,6f7Dkwgy,2020-0188,2020-06-04,10:12:20,10:33:25,NA,incomplete,167,race,2,0,left,C_F_12.jpg,C_M_15.jpg,A_F_08.jpg,left,611.0549999866635,true,low,false
6f7Dkwgy,379ol9dbtvr9qb2hghaat1q2k68y9b,3xxu1swe8q8sljevrhi3mo3t13l0ax,6f7Dkwgy,2020-0188,2020-06-04,10:12:20,10:33:25,NA,incomplete,168,race,2,1,right,A_F_13.jpg,C_F_08.jpg,A_M_09.jpg,right,710.2250000461936,true,low,false
6f7Dkwgy,379ol9dbtvr9qb2hghaat1q2k68y9b,3xxu1swe8q8sljevrhi3mo3t13l0ax,6f7Dkwgy,2020-0188,2020-06-04,10:12:20,10:33:25,NA,incomplete,169,race,2,1,right,A_F_08.jpg,C_F_01.jpg,A_M_04.jpg,right,833.8700000895187,true,low,false
6f7Dkwgy,379ol9dbtvr9qb2hghaat1q2k68y9b,3xxu1swe8q8sljevrhi3mo3t13l0ax,6f7Dkwgy,2020-0188,2020-06-04,10:12:20,10:33:25,NA,incomplete,170,race,2,1,right,C_M_07.jpg,A_M_10.jpg,C_F_09.jpg,left,603.609999991022,false,low,false
6f7Dkwgy,379ol9dbtvr9qb2hghaat1q2k68y9b,3xxu1swe8q8sljevrhi3mo3t13l0ax,6f7Dkwgy,2020-0188,2020-06-04,10:12:20,10:33:25,NA,incomplete,171,race,2,1,left,A_F_11.jpg,A_M_06.jpg,C_F_14.jpg,left,846.5649998979643,true,low,false
6f7Dkwgy,379ol9dbtvr9qb2hghaat1q2k68y9b,3xxu1swe8q8sljevrhi3mo3t13l0ax,6f7Dkwgy,2020-0188,2020-06-04,10:12:20,10:33:25,NA,incomplete,172,race,2,1,right,A_M_11.jpg,C_M_04.jpg,A_F_10.jpg,right,686.0100000631064,true,low,false
6f7Dkwgy,379ol9dbtvr9qb2hghaat1q2k68y9b,3xxu1swe8q8sljevrhi3mo3t13l0ax,6f7Dkwgy,2020-0188,2020-06-04,10:12:20,10:33:25,NA,incomplete,173,race,2,1,right,A_M_16.jpg,C_M_03.jpg,A_F_15.jpg,left,654.8000000184402,false,low,false
6f7Dkwgy,379ol9dbtvr9qb2hghaat1q2k68y9b,3xxu1swe8q8sljevrhi3mo3t13l0ax,6f7Dkwgy,2020-0188,2020-06-04,10:12:20,10:33:25,NA,incomplete,174,race,2,1,right,C_F_04.jpg,A_F_13.jpg,C_M_01.jpg,right,725.5899999290705,true,low,false
6f7Dkwgy,379ol9dbtvr9qb2hghaat1q2k68y9b,3xxu1swe8q8sljevrhi3mo3t13l0ax,6f7Dkwgy,2020-0188,2020-06-04,10:12:20,10:33:25,NA,incomplete,175,race,2,1,left,C_F_10.jpg,C_M_09.jpg,A_F_04.jpg,left,610.9799999976531,true,low,false
6f7Dkwgy,379ol9dbtvr9qb2hghaat1q2k68y9b,3xxu1swe8q8sljevrhi3mo3t13l0ax,6f7Dkwgy,2020-0188,2020-06-04,10:12:20,10:33:25,NA,incomplete,176,race,2,1,left,A_F_13.jpg,A_M_15.jpg,C_F_08.jpg,right,683.7450000457466,false,low,false
6f7Dkwgy,379ol9dbtvr9qb2hghaat1q2k68y9b,3xxu1swe8q8sljevrhi3mo3t13l0ax,6f7Dkwgy,2020-0188,2020-06-04,10:12:20,10:33:25,NA,incomplete,177,race,2,1,left,C_M_07.jpg,C_F_13.jpg,A_M_16.jpg,right,698.9250000333413,false,low,false
6f7Dkwgy,379ol9dbtvr9qb2hghaat1q2k68y9b,3xxu1swe8q8sljevrhi3mo3t13l0ax,6f7Dkwgy,2020-0188,2020-06-04,10:12:20,10:33:25,NA,incomplete,178,race,2,1,right,C_F_09.jpg,A_F_07.jpg,C_M_16.jpg,right,779.2800000170246,true,low,false
6f7Dkwgy,379ol9dbtvr9qb2hghaat1q2k68y9b,3xxu1swe8q8sljevrhi3mo3t13l0ax,6f7Dkwgy,2020-0188,2020-06-04,10:12:20,10:33:25,NA,incomplete,179,race,2,1,right,C_F_08.jpg,A_F_07.jpg,C_M_06.jpg,right,700.7899999152869,true,low,false
6f7Dkwgy,379ol9dbtvr9qb2hghaat1q2k68y9b,3xxu1swe8q8sljevrhi3mo3t13l0ax,6f7Dkwgy,2020-0188,2020-06-04,10:12:20,10:33:25,NA,incomplete,180,gender,3,1,left,C_F_07.jpg,A_F_01.jpg,C_M_05.jpg,right,756.1149999964982,false,low,false
6f7Dkwgy,379ol9dbtvr9qb2hghaat1q2k68y9b,3xxu1swe8q8sljevrhi3mo3t13l0ax,6f7Dkwgy,2020-0188,2020-06-04,10:12:20,10:33:25,NA,incomplete,181,gender,3,1,left,A_M_06.jpg,C_M_14.jpg,A_F_09.jpg,right,606.7150000017136,false,low,false
6f7Dkwgy,379ol9dbtvr9qb2hghaat1q2k68y9b,3xxu1swe8q8sljevrhi3mo3t13l0ax,6f7Dkwgy,2020-0188,2020-06-04,10:12:20,10:33:25,NA,incomplete,182,gender,3,1,right,A_M_08.jpg,A_F_14.jpg,C_M_16.jpg,left,802.1799999987707,false,low,false
6f7Dkwgy,379ol9dbtvr9qb2hghaat1q2k68y9b,3xxu1swe8q8sljevrhi3mo3t13l0ax,6f7Dkwgy,2020-0188,2020-06-04,10:12:20,10:33:25,NA,incomplete,183,gender,3,0,right,C_M_05.jpg,C_F_02.jpg,A_M_15.jpg,right,732.6200000243261,true,low,false
6f7Dkwgy,379ol9dbtvr9qb2hghaat1q2k68y9b,3xxu1swe8q8sljevrhi3mo3t13l0ax,6f7Dkwgy,2020-0188,2020-06-04,10:12:20,10:33:25,NA,incomplete,184,gender,3,1,right,A_F_08.jpg,A_M_07.jpg,C_F_04.jpg,right,721.2199999485165,true,low,false
6f7Dkwgy,379ol9dbtvr9qb2hghaat1q2k68y9b,3xxu1swe8q8sljevrhi3mo3t13l0ax,6f7Dkwgy,2020-0188,2020-06-04,10:12:20,10:33:25,NA,incomplete,185,gender,3,0,right,C_F_16.jpg,C_M_14.jpg,A_F_12.jpg,right,853.6750000203028,true,low,false
6f7Dkwgy,379ol9dbtvr9qb2hghaat1q2k68y9b,3xxu1swe8q8sljevrhi3mo3t13l0ax,6f7Dkwgy,2020-0188,2020-06-04,10:12:20,10:33:25,NA,incomplete,186,gender,3,1,right,A_M_14.jpg,A_F_11.jpg,C_M_03.jpg,right,622.0099999336526,true,low,false
6f7Dkwgy,379ol9dbtvr9qb2hghaat1q2k68y9b,3xxu1swe8q8sljevrhi3mo3t13l0ax,6f7Dkwgy,2020-0188,2020-06-04,10:12:20,10:33:25,NA,incomplete,187,gender,3,0,right,C_F_12.jpg,C_M_04.jpg,A_F_01.jpg,right,695.8749999757856,true,low,false
6f7Dkwgy,379ol9dbtvr9qb2hghaat1q2k68y9b,3xxu1swe8q8sljevrhi3mo3t13l0ax,6f7Dkwgy,2020-0188,2020-06-04,10:12:20,10:33:25,NA,incomplete,188,gender,3,1,left,C_F_09.jpg,A_F_03.jpg,C_M_11.jpg,left,732.6399999437854,true,low,false
6f7Dkwgy,379ol9dbtvr9qb2hghaat1q2k68y9b,3xxu1swe8q8sljevrhi3mo3t13l0ax,6f7Dkwgy,2020-0188,2020-06-04,10:12:20,10:33:25,NA,incomplete,189,gender,3,0,left,A_F_11.jpg,C_F_04.jpg,A_M_03.jpg,left,681.6899999976158,true,low,false
6f7Dkwgy,379ol9dbtvr9qb2hghaat1q2k68y9b,3xxu1swe8q8sljevrhi3mo3t13l0ax,6f7Dkwgy,2020-0188,2020-06-04,10:12:20,10:33:25,NA,incomplete,190,gender,3,1,right,C_F_04.jpg,C_M_16.jpg,A_F_14.jpg,right,705.8700000634417,true,low,false
6f7Dkwgy,379ol9dbtvr9qb2hghaat1q2k68y9b,3xxu1swe8q8sljevrhi3mo3t13l0ax,6f7Dkwgy,2020-0188,2020-06-04,10:12:20,10:33:25,NA,incomplete,191,gender,3,1,left,C_M_05.jpg,A_M_07.jpg,C_F_16.jpg,left,745.3550000209361,true,low,false
6f7Dkwgy,379ol9dbtvr9qb2hghaat1q2k68y9b,3xxu1swe8q8sljevrhi3mo3t13l0ax,6f7Dkwgy,2020-0188,2020-06-04,10:12:20,10:33:25,NA,incomplete,192,gender,3,1,left,A_F_12.jpg,C_F_04.jpg,A_M_15.jpg,left,654.2750000953674,true,low,false
6f7Dkwgy,379ol9dbtvr9qb2hghaat1q2k68y9b,3xxu1swe8q8sljevrhi3mo3t13l0ax,6f7Dkwgy,2020-0188,2020-06-04,10:12:20,10:33:25,NA,incomplete,193,gender,3,0,right,C_F_06.jpg,C_M_12.jpg,A_F_03.jpg,right,656.9149999413639,true,low,false
6f7Dkwgy,379ol9dbtvr9qb2hghaat1q2k68y9b,3xxu1swe8q8sljevrhi3mo3t13l0ax,6f7Dkwgy,2020-0188,2020-06-04,10:12:20,10:33:25,NA,incomplete,194,gender,3,1,left,A_M_13.jpg,C_M_11.jpg,A_F_16.jpg,left,726.299999980256,true,low,false
6f7Dkwgy,379ol9dbtvr9qb2hghaat1q2k68y9b,3xxu1swe8q8sljevrhi3mo3t13l0ax,6f7Dkwgy,2020-0188,2020-06-04,10:12:20,10:33:25,NA,incomplete,195,gender,3,0,right,A_M_12.jpg,A_F_07.jpg,C_M_09.jpg,right,762.8299999050796,true,low,false
6f7Dkwgy,379ol9dbtvr9qb2hghaat1q2k68y9b,3xxu1swe8q8sljevrhi3mo3t13l0ax,6f7Dkwgy,2020-0188,2020-06-04,10:12:20,10:33:25,NA,incomplete,196,gender,3,1,left,A_F_12.jpg,C_F_05.jpg,A_M_13.jpg,left,662.2200000565499,true,low,false
6f7Dkwgy,379ol9dbtvr9qb2hghaat1q2k68y9b,3xxu1swe8q8sljevrhi3mo3t13l0ax,6f7Dkwgy,2020-0188,2020-06-04,10:12:20,10:33:25,NA,incomplete,197,gender,3,1,left,A_F_16.jpg,C_F_08.jpg,A_M_13.jpg,left,662.9200000315905,true,low,false
6f7Dkwgy,379ol9dbtvr9qb2hghaat1q2k68y9b,3xxu1swe8q8sljevrhi3mo3t13l0ax,6f7Dkwgy,2020-0188,2020-06-04,10:12:20,10:33:25,NA,incomplete,198,gender,3,0,left,A_M_15.jpg,C_M_11.jpg,A_F_01.jpg,left,752.7949999785051,true,low,false
6f7Dkwgy,379ol9dbtvr9qb2hghaat1q2k68y9b,3xxu1swe8q8sljevrhi3mo3t13l0ax,6f7Dkwgy,2020-0188,2020-06-04,10:12:20,10:33:25,NA,incomplete,199,gender,3,1,right,C_F_05.jpg,C_M_15.jpg,A_F_10.jpg,right,690.39000000339,true,low,false
6f7Dkwgy,379ol9dbtvr9qb2hghaat1q2k68y9b,3xxu1swe8q8sljevrhi3mo3t13l0ax,6f7Dkwgy,2020-0188,2020-06-04,10:12:20,10:33:25,NA,incomplete,200,race,2,0,left,A_M_01.jpg,A_F_11.jpg,C_M_16.jpg,left,602.1099999779835,true,low,false
6f7Dkwgy,379ol9dbtvr9qb2hghaat1q2k68y9b,3xxu1swe8q8sljevrhi3mo3t13l0ax,6f7Dkwgy,2020-0188,2020-06-04,10:12:20,10:33:25,NA,incomplete,201,race,2,1,right,C_M_06.jpg,A_M_16.jpg,C_F_07.jpg,left,723.8949999446049,false,low,false
6f7Dkwgy,379ol9dbtvr9qb2hghaat1q2k68y9b,3xxu1swe8q8sljevrhi3mo3t13l0ax,6f7Dkwgy,2020-0188,2020-06-04,10:12:20,10:33:25,NA,incomplete,202,race,2,0,right,C_M_12.jpg,A_M_13.jpg,C_F_05.jpg,left,625.0050000380725,false,low,false
6f7Dkwgy,379ol9dbtvr9qb2hghaat1q2k68y9b,3xxu1swe8q8sljevrhi3mo3t13l0ax,6f7Dkwgy,2020-0188,2020-06-04,10:12:20,10:33:25,NA,incomplete,203,race,2,1,left,A_F_09.jpg,A_M_16.jpg,C_F_10.jpg,right,676.2599999783561,false,low,false
6f7Dkwgy,379ol9dbtvr9qb2hghaat1q2k68y9b,3xxu1swe8q8sljevrhi3mo3t13l0ax,6f7Dkwgy,2020-0188,2020-06-04,10:12:20,10:33:25,NA,incomplete,204,race,2,0,left,C_M_03.jpg,C_F_05.jpg,A_M_09.jpg,right,923.6500000115484,false,low,false
6f7Dkwgy,379ol9dbtvr9qb2hghaat1q2k68y9b,3xxu1swe8q8sljevrhi3mo3t13l0ax,6f7Dkwgy,2020-0188,2020-06-04,10:12:20,10:33:25,NA,incomplete,205,race,2,1,right,C_F_11.jpg,A_F_15.jpg,C_M_09.jpg,left,623.8349999766797,false,low,false
6f7Dkwgy,379ol9dbtvr9qb2hghaat1q2k68y9b,3xxu1swe8q8sljevrhi3mo3t13l0ax,6f7Dkwgy,2020-0188,2020-06-04,10:12:20,10:33:25,NA,incomplete,206,race,2,1,right,C_F_04.jpg,A_F_02.jpg,C_M_06.jpg,left,704.3249999405816,false,low,false
6f7Dkwgy,379ol9dbtvr9qb2hghaat1q2k68y9b,3xxu1swe8q8sljevrhi3mo3t13l0ax,6f7Dkwgy,2020-0188,2020-06-04,10:12:20,10:33:25,NA,incomplete,207,race,2,1,right,C_M_06.jpg,A_M_04.jpg,C_F_05.jpg,right,718.2899999897927,true,low,false
6f7Dkwgy,379ol9dbtvr9qb2hghaat1q2k68y9b,3xxu1swe8q8sljevrhi3mo3t13l0ax,6f7Dkwgy,2020-0188,2020-06-04,10:12:20,10:33:25,NA,incomplete,208,race,2,1,right,C_M_11.jpg,A_M_12.jpg,C_F_14.jpg,right,683.1949999323115,true,low,false
6f7Dkwgy,379ol9dbtvr9qb2hghaat1q2k68y9b,3xxu1swe8q8sljevrhi3mo3t13l0ax,6f7Dkwgy,2020-0188,2020-06-04,10:12:20,10:33:25,NA,incomplete,209,race,2,1,right,C_M_11.jpg,A_M_15.jpg,C_F_12.jpg,right,675.5099999718368,true,low,false
6f7Dkwgy,379ol9dbtvr9qb2hghaat1q2k68y9b,3xxu1swe8q8sljevrhi3mo3t13l0ax,6f7Dkwgy,2020-0188,2020-06-04,10:12:20,10:33:25,NA,incomplete,210,race,2,0,left,C_M_09.jpg,C_F_16.jpg,A_M_02.jpg,left,585.495000006631,true,low,false
6f7Dkwgy,379ol9dbtvr9qb2hghaat1q2k68y9b,3xxu1swe8q8sljevrhi3mo3t13l0ax,6f7Dkwgy,2020-0188,2020-06-04,10:12:20,10:33:25,NA,incomplete,211,race,2,1,left,A_M_06.jpg,A_F_16.jpg,C_M_01.jpg,left,893.1099999463186,true,low,false
6f7Dkwgy,379ol9dbtvr9qb2hghaat1q2k68y9b,3xxu1swe8q8sljevrhi3mo3t13l0ax,6f7Dkwgy,2020-0188,2020-06-04,10:12:20,10:33:25,NA,incomplete,212,race,2,1,left,A_M_04.jpg,A_F_01.jpg,C_M_02.jpg,left,700.2850000280887,true,low,false
6f7Dkwgy,379ol9dbtvr9qb2hghaat1q2k68y9b,3xxu1swe8q8sljevrhi3mo3t13l0ax,6f7Dkwgy,2020-0188,2020-06-04,10:12:20,10:33:25,NA,incomplete,213,race,2,1,left,A_F_16.jpg,A_M_10.jpg,C_F_08.jpg,left,805.2250000182539,true,low,false
6f7Dkwgy,379ol9dbtvr9qb2hghaat1q2k68y9b,3xxu1swe8q8sljevrhi3mo3t13l0ax,6f7Dkwgy,2020-0188,2020-06-04,10:12:20,10:33:25,NA,incomplete,214,race,2,0,left,C_F_05.jpg,C_M_04.jpg,A_F_01.jpg,left,779.5700000133365,true,low,false
6f7Dkwgy,379ol9dbtvr9qb2hghaat1q2k68y9b,3xxu1swe8q8sljevrhi3mo3t13l0ax,6f7Dkwgy,2020-0188,2020-06-04,10:12:20,10:33:25,NA,incomplete,215,race,2,1,right,C_F_09.jpg,A_F_03.jpg,C_M_05.jpg,right,719.8449999559671,true,low,false
6f7Dkwgy,379ol9dbtvr9qb2hghaat1q2k68y9b,3xxu1swe8q8sljevrhi3mo3t13l0ax,6f7Dkwgy,2020-0188,2020-06-04,10:12:20,10:33:25,NA,incomplete,216,race,2,1,left,C_F_16.jpg,C_M_08.jpg,A_F_11.jpg,left,837.3549999669194,true,low,false
6f7Dkwgy,379ol9dbtvr9qb2hghaat1q2k68y9b,3xxu1swe8q8sljevrhi3mo3t13l0ax,6f7Dkwgy,2020-0188,2020-06-04,10:12:20,10:33:25,NA,incomplete,217,race,2,1,left,C_M_13.jpg,C_F_14.jpg,A_M_09.jpg,left,548.2249999186024,true,low,false
6f7Dkwgy,379ol9dbtvr9qb2hghaat1q2k68y9b,3xxu1swe8q8sljevrhi3mo3t13l0ax,6f7Dkwgy,2020-0188,2020-06-04,10:12:20,10:33:25,NA,incomplete,218,race,2,1,left,A_F_03.jpg,A_M_13.jpg,C_F_12.jpg,left,618.5950000071898,true,low,false
6f7Dkwgy,379ol9dbtvr9qb2hghaat1q2k68y9b,3xxu1swe8q8sljevrhi3mo3t13l0ax,6f7Dkwgy,2020-0188,2020-06-04,10:12:20,10:33:25,NA,incomplete,219,race,2,0,right,A_M_14.jpg,C_M_04.jpg,A_F_12.jpg,left,675.3099999623373,false,low,false
6f7Dkwgy,379ol9dbtvr9qb2hghaat1q2k68y9b,3xxu1swe8q8sljevrhi3mo3t13l0ax,6f7Dkwgy,2020-0188,2020-06-04,10:12:20,10:33:25,NA,incomplete,220,gender,3,1,left,A_F_01.jpg,C_F_13.jpg,A_M_10.jpg,right,818.6600001063198,false,low,false
6f7Dkwgy,379ol9dbtvr9qb2hghaat1q2k68y9b,3xxu1swe8q8sljevrhi3mo3t13l0ax,6f7Dkwgy,2020-0188,2020-06-04,10:12:20,10:33:25,NA,incomplete,221,gender,3,0,left,C_F_02.jpg,A_F_04.jpg,C_M_01.jpg,left,643.3800000231713,true,low,false
6f7Dkwgy,379ol9dbtvr9qb2hghaat1q2k68y9b,3xxu1swe8q8sljevrhi3mo3t13l0ax,6f7Dkwgy,2020-0188,2020-06-04,10:12:20,10:33:25,NA,incomplete,222,gender,3,1,right,A_M_12.jpg,A_F_03.jpg,C_M_08.jpg,left,605.3300000494346,false,low,false
6f7Dkwgy,379ol9dbtvr9qb2hghaat1q2k68y9b,3xxu1swe8q8sljevrhi3mo3t13l0ax,6f7Dkwgy,2020-0188,2020-06-04,10:12:20,10:33:25,NA,incomplete,223,gender,3,1,left,C_F_12.jpg,A_F_11.jpg,C_M_06.jpg,left,665.0549999903888,true,low,false
6f7Dkwgy,379ol9dbtvr9qb2hghaat1q2k68y9b,3xxu1swe8q8sljevrhi3mo3t13l0ax,6f7Dkwgy,2020-0188,2020-06-04,10:12:20,10:33:25,NA,incomplete,224,gender,3,0,left,A_F_16.jpg,C_F_10.jpg,A_M_13.jpg,right,824.3299999739975,false,low,false
6f7Dkwgy,379ol9dbtvr9qb2hghaat1q2k68y9b,3xxu1swe8q8sljevrhi3mo3t13l0ax,6f7Dkwgy,2020-0188,2020-06-04,10:12:20,10:33:25,NA,incomplete,225,gender,3,1,left,C_F_11.jpg,A_F_08.jpg,C_M_06.jpg,right,841.0949999233708,false,low,false
6f7Dkwgy,379ol9dbtvr9qb2hghaat1q2k68y9b,3xxu1swe8q8sljevrhi3mo3t13l0ax,6f7Dkwgy,2020-0188,2020-06-04,10:12:20,10:33:25,NA,incomplete,226,gender,3,1,right,C_F_02.jpg,C_M_08.jpg,A_F_06.jpg,left,568.6100000748411,false,low,false
6f7Dkwgy,379ol9dbtvr9qb2hghaat1q2k68y9b,3xxu1swe8q8sljevrhi3mo3t13l0ax,6f7Dkwgy,2020-0188,2020-06-04,10:12:20,10:33:25,NA,incomplete,227,gender,3,1,right,A_M_14.jpg,A_F_01.jpg,C_M_05.jpg,left,700.1600000075996,false,low,false
6f7Dkwgy,379ol9dbtvr9qb2hghaat1q2k68y9b,3xxu1swe8q8sljevrhi3mo3t13l0ax,6f7Dkwgy,2020-0188,2020-06-04,10:12:20,10:33:25,NA,incomplete,228,gender,3,1,right,A_M_04.jpg,A_F_10.jpg,C_M_05.jpg,left,724.6499999891967,false,low,false
6f7Dkwgy,379ol9dbtvr9qb2hghaat1q2k68y9b,3xxu1swe8q8sljevrhi3mo3t13l0ax,6f7Dkwgy,2020-0188,2020-06-04,10:12:20,10:33:25,NA,incomplete,229,gender,3,0,right,A_M_09.jpg,A_F_12.jpg,C_M_15.jpg,right,769.5700000040233,true,low,false
6f7Dkwgy,379ol9dbtvr9qb2hghaat1q2k68y9b,3xxu1swe8q8sljevrhi3mo3t13l0ax,6f7Dkwgy,2020-0188,2020-06-04,10:12:20,10:33:25,NA,incomplete,230,gender,3,1,right,C_F_02.jpg,C_M_12.jpg,A_F_16.jpg,right,684.9050000309944,true,low,false
6f7Dkwgy,379ol9dbtvr9qb2hghaat1q2k68y9b,3xxu1swe8q8sljevrhi3mo3t13l0ax,6f7Dkwgy,2020-0188,2020-06-04,10:12:20,10:33:25,NA,incomplete,231,gender,3,1,right,C_M_04.jpg,C_F_06.jpg,A_M_01.jpg,left,658.129999996163,false,low,false
6f7Dkwgy,379ol9dbtvr9qb2hghaat1q2k68y9b,3xxu1swe8q8sljevrhi3mo3t13l0ax,6f7Dkwgy,2020-0188,2020-06-04,10:12:20,10:33:25,NA,incomplete,232,gender,3,1,right,A_F_14.jpg,A_M_07.jpg,C_F_03.jpg,right,786.6599999833852,true,low,false
6f7Dkwgy,379ol9dbtvr9qb2hghaat1q2k68y9b,3xxu1swe8q8sljevrhi3mo3t13l0ax,6f7Dkwgy,2020-0188,2020-06-04,10:12:20,10:33:25,NA,incomplete,233,gender,3,1,left,A_M_01.jpg,C_M_16.jpg,A_F_13.jpg,left,694.8400000110269,true,low,false
6f7Dkwgy,379ol9dbtvr9qb2hghaat1q2k68y9b,3xxu1swe8q8sljevrhi3mo3t13l0ax,6f7Dkwgy,2020-0188,2020-06-04,10:12:20,10:33:25,NA,incomplete,234,gender,3,1,left,A_F_06.jpg,C_F_14.jpg,A_M_03.jpg,left,652.6900000171736,true,low,false
6f7Dkwgy,379ol9dbtvr9qb2hghaat1q2k68y9b,3xxu1swe8q8sljevrhi3mo3t13l0ax,6f7Dkwgy,2020-0188,2020-06-04,10:12:20,10:33:25,NA,incomplete,235,gender,3,1,left,A_M_01.jpg,C_M_05.jpg,A_F_12.jpg,left,628.3850000472739,true,low,false
6f7Dkwgy,379ol9dbtvr9qb2hghaat1q2k68y9b,3xxu1swe8q8sljevrhi3mo3t13l0ax,6f7Dkwgy,2020-0188,2020-06-04,10:12:20,10:33:25,NA,incomplete,236,gender,3,1,left,A_M_08.jpg,C_M_09.jpg,A_F_01.jpg,left,630.280000041239,true,low,false
6f7Dkwgy,379ol9dbtvr9qb2hghaat1q2k68y9b,3xxu1swe8q8sljevrhi3mo3t13l0ax,6f7Dkwgy,2020-0188,2020-06-04,10:12:20,10:33:25,NA,incomplete,237,gender,3,1,left,A_F_02.jpg,C_F_07.jpg,A_M_08.jpg,left,638.6100000236183,true,low,false
6f7Dkwgy,379ol9dbtvr9qb2hghaat1q2k68y9b,3xxu1swe8q8sljevrhi3mo3t13l0ax,6f7Dkwgy,2020-0188,2020-06-04,10:12:20,10:33:25,NA,incomplete,238,gender,3,1,right,A_F_08.jpg,A_M_04.jpg,C_F_06.jpg,right,673.3199999434873,true,low,false
6f7Dkwgy,379ol9dbtvr9qb2hghaat1q2k68y9b,3xxu1swe8q8sljevrhi3mo3t13l0ax,6f7Dkwgy,2020-0188,2020-06-04,10:12:20,10:33:25,NA,incomplete,239,gender,3,1,right,A_F_04.jpg,A_M_15.jpg,C_F_10.jpg,left,743.845000048168,false,low,false
6f7Dkwgy,379ol9dbtvr9qb2hghaat1q2k68y9b,3xxu1swe8q8sljevrhi3mo3t13l0ax,6f7Dkwgy,2020-0188,2020-06-04,10:12:20,10:33:25,NA,NA,instruction example,filling,NA,NA,NA,Red_Triangle_Dots_1.jpg,Blue_Star_Dots_2.jpg,Green_Circle_Chess_1.jpg,NA,NA,NA,NA,undefined
6f7Dkwgy,379ol9dbtvr9qb2hghaat1q2k68y9b,3xxu1swe8q8sljevrhi3mo3t13l0ax,6f7Dkwgy,2020-0188,2020-06-04,10:12:20,10:33:25,NA,NA,instruction example,filling,NA,NA,NA,Purple_Circle_Grid_3.jpg,Green_Triangle_Chess_3.jpg,Blue_Plus_Grid_1.jpg,NA,NA,NA,NA,undefined
6f7Dkwgy,379ol9dbtvr9qb2hghaat1q2k68y9b,3xxu1swe8q8sljevrhi3mo3t13l0ax,6f7Dkwgy,2020-0188,2020-06-04,10:12:20,10:33:25,NA,NA,instruction example,filling,NA,NA,NA,A_M_15.jpg,A_F_01.jpg,C_M_06.jpg,NA,NA,NA,NA,undefined
6f7Dkwgy,379ol9dbtvr9qb2hghaat1q2k68y9b,3xxu1swe8q8sljevrhi3mo3t13l0ax,6f7Dkwgy,2020-0188,2020-06-04,10:12:20,10:33:25,NA,NA,instruction example,filling,NA,NA,NA,A_F_10.jpg,C_F_15.jpg,A_M_11.jpg,NA,NA,NA,NA,undefined
