workerId,hitId,assignmentId,subject,studyid,exp_date,exp_start,exp_end,time_start,time_end,trial,type,sequence,reward_validity,answer,image_top,image_left,image_right,response,response_time,response_acc,volatility,age,race,gender,ethnicity,color,vision,neuro,practice
5l8acRcC,379ol9dbtvr9qb2hghaat1q2k68y9b,3y4w8q93l3x6crineoxuxi1pg56vd3,5l8acRcC,2020-0188,2020-06-04,20:29:51,20:52:10,NA,incomplete,0,color,0,1,left,Green_Plus_Grid_3.jpg,Green_Triangle_Dots_2.jpg,Blue_Circle_Chess_3.jpg,left,1201.1500000008382,true,NA,NA,NA,NA,NA,NA,NA,NA,true
5l8acRcC,379ol9dbtvr9qb2hghaat1q2k68y9b,3y4w8q93l3x6crineoxuxi1pg56vd3,5l8acRcC,2020-0188,2020-06-04,20:29:51,20:52:10,NA,incomplete,1,color,0,1,right,Purple_Triangle_Chess_4.jpg,Red_Circle_Grid_4.jpg,Purple_Plus_Stripes_3.jpg,right,638.0050000008196,true,NA,NA,NA,NA,NA,NA,NA,NA,true
5l8acRcC,379ol9dbtvr9qb2hghaat1q2k68y9b,3y4w8q93l3x6crineoxuxi1pg56vd3,5l8acRcC,2020-0188,2020-06-04,20:29:51,20:52:10,NA,incomplete,2,color,0,0,right,Blue_Circle_Stripes_1.jpg,Red_Star_Grid_1.jpg,Blue_Triangle_Dots_2.jpg,right,792.3650000011548,true,NA,NA,NA,NA,NA,NA,NA,NA,true
5l8acRcC,379ol9dbtvr9qb2hghaat1q2k68y9b,3y4w8q93l3x6crineoxuxi1pg56vd3,5l8acRcC,2020-0188,2020-06-04,20:29:51,20:52:10,NA,incomplete,3,color,0,1,right,Red_Triangle_Grid_4.jpg,Blue_Plus_Chess_4.jpg,Red_Circle_Dots_2.jpg,right,570.8850000009406,true,NA,NA,NA,NA,NA,NA,NA,NA,true
5l8acRcC,379ol9dbtvr9qb2hghaat1q2k68y9b,3y4w8q93l3x6crineoxuxi1pg56vd3,5l8acRcC,2020-0188,2020-06-04,20:29:51,20:52:10,NA,incomplete,4,color,0,1,left,Blue_Triangle_Stripes_4.jpg,Blue_Plus_Dots_3.jpg,Green_Star_Chess_4.jpg,left,726.8799999983748,true,NA,NA,NA,NA,NA,NA,NA,NA,true
5l8acRcC,379ol9dbtvr9qb2hghaat1q2k68y9b,3y4w8q93l3x6crineoxuxi1pg56vd3,5l8acRcC,2020-0188,2020-06-04,20:29:51,20:52:10,NA,incomplete,5,color,0,1,left,Blue_Plus_Dots_1.jpg,Blue_Circle_Grid_4.jpg,Red_Triangle_Stripes_1.jpg,left,519.3450000005541,true,NA,NA,NA,NA,NA,NA,NA,NA,true
5l8acRcC,379ol9dbtvr9qb2hghaat1q2k68y9b,3y4w8q93l3x6crineoxuxi1pg56vd3,5l8acRcC,2020-0188,2020-06-04,20:29:51,20:52:10,NA,incomplete,6,color,0,1,right,Purple_Triangle_Dots_2.jpg,Blue_Circle_Chess_2.jpg,Purple_Plus_Stripes_4.jpg,right,462.86999999941327,true,NA,NA,NA,NA,NA,NA,NA,NA,true
5l8acRcC,379ol9dbtvr9qb2hghaat1q2k68y9b,3y4w8q93l3x6crineoxuxi1pg56vd3,5l8acRcC,2020-0188,2020-06-04,20:29:51,20:52:10,NA,incomplete,7,color,0,1,right,Green_Triangle_Chess_2.jpg,Purple_Circle_Dots_2.jpg,Green_Star_Stripes_4.jpg,right,554.3249999972759,true,NA,NA,NA,NA,NA,NA,NA,NA,true
5l8acRcC,379ol9dbtvr9qb2hghaat1q2k68y9b,3y4w8q93l3x6crineoxuxi1pg56vd3,5l8acRcC,2020-0188,2020-06-04,20:29:51,20:52:10,NA,incomplete,8,color,0,1,left,Purple_Plus_Grid_3.jpg,Purple_Star_Chess_1.jpg,Red_Triangle_Dots_3.jpg,left,573.8449999990407,true,NA,NA,NA,NA,NA,NA,NA,NA,true
5l8acRcC,379ol9dbtvr9qb2hghaat1q2k68y9b,3y4w8q93l3x6crineoxuxi1pg56vd3,5l8acRcC,2020-0188,2020-06-04,20:29:51,20:52:10,NA,incomplete,9,color,0,0,left,Purple_Triangle_Stripes_1.jpg,Purple_Plus_Chess_2.jpg,Red_Circle_Grid_1.jpg,left,492.40500000084285,true,NA,NA,NA,NA,NA,NA,NA,NA,true
5l8acRcC,379ol9dbtvr9qb2hghaat1q2k68y9b,3y4w8q93l3x6crineoxuxi1pg56vd3,5l8acRcC,2020-0188,2020-06-04,20:29:51,20:52:10,NA,incomplete,10,color,0,1,right,Purple_Star_Stripes_1.jpg,Blue_Plus_Dots_1.jpg,Purple_Circle_Chess_3.jpg,right,575.0300000000279,true,NA,NA,NA,NA,NA,NA,NA,NA,true
5l8acRcC,379ol9dbtvr9qb2hghaat1q2k68y9b,3y4w8q93l3x6crineoxuxi1pg56vd3,5l8acRcC,2020-0188,2020-06-04,20:29:51,20:52:10,NA,incomplete,11,color,0,0,left,Red_Plus_Grid_3.jpg,Red_Circle_Dots_4.jpg,Blue_Triangle_Chess_3.jpg,left,760.5199999997858,true,NA,NA,NA,NA,NA,NA,NA,NA,true
5l8acRcC,379ol9dbtvr9qb2hghaat1q2k68y9b,3y4w8q93l3x6crineoxuxi1pg56vd3,5l8acRcC,2020-0188,2020-06-04,20:29:51,20:52:10,NA,incomplete,12,color,0,1,left,Green_Plus_Stripes_2.jpg,Green_Triangle_Grid_3.jpg,Blue_Circle_Dots_2.jpg,left,625.8300000008894,true,NA,NA,NA,NA,NA,NA,NA,NA,true
5l8acRcC,379ol9dbtvr9qb2hghaat1q2k68y9b,3y4w8q93l3x6crineoxuxi1pg56vd3,5l8acRcC,2020-0188,2020-06-04,20:29:51,20:52:10,NA,incomplete,13,color,0,1,left,Blue_Plus_Dots_4.jpg,Blue_Triangle_Grid_2.jpg,Red_Circle_Stripes_4.jpg,left,712.0400000021327,true,NA,NA,NA,NA,NA,NA,NA,NA,true
5l8acRcC,379ol9dbtvr9qb2hghaat1q2k68y9b,3y4w8q93l3x6crineoxuxi1pg56vd3,5l8acRcC,2020-0188,2020-06-04,20:29:51,20:52:10,NA,incomplete,14,color,0,1,right,Purple_Star_Chess_2.jpg,Green_Triangle_Grid_2.jpg,Purple_Plus_Dots_1.jpg,right,513.8000000005122,true,NA,NA,NA,NA,NA,NA,NA,NA,true
5l8acRcC,379ol9dbtvr9qb2hghaat1q2k68y9b,3y4w8q93l3x6crineoxuxi1pg56vd3,5l8acRcC,2020-0188,2020-06-04,20:29:51,20:52:10,NA,incomplete,15,color,0,1,left,Red_Star_Grid_4.jpg,Red_Plus_Dots_1.jpg,Green_Triangle_Chess_4.jpg,left,548.399999999674,true,NA,NA,NA,NA,NA,NA,NA,NA,true
5l8acRcC,379ol9dbtvr9qb2hghaat1q2k68y9b,3y4w8q93l3x6crineoxuxi1pg56vd3,5l8acRcC,2020-0188,2020-06-04,20:29:51,20:52:10,NA,incomplete,16,color,0,1,right,Red_Star_Grid_4.jpg,Green_Plus_Dots_4.jpg,Red_Triangle_Chess_1.jpg,right,480.2850000014296,true,NA,NA,NA,NA,NA,NA,NA,NA,true
5l8acRcC,379ol9dbtvr9qb2hghaat1q2k68y9b,3y4w8q93l3x6crineoxuxi1pg56vd3,5l8acRcC,2020-0188,2020-06-04,20:29:51,20:52:10,NA,incomplete,17,color,0,0,left,Green_Plus_Dots_3.jpg,Green_Star_Grid_1.jpg,Blue_Circle_Chess_3.jpg,left,506.84499999985565,true,NA,NA,NA,NA,NA,NA,NA,NA,true
5l8acRcC,379ol9dbtvr9qb2hghaat1q2k68y9b,3y4w8q93l3x6crineoxuxi1pg56vd3,5l8acRcC,2020-0188,2020-06-04,20:29:51,20:52:10,NA,incomplete,18,color,0,1,left,Blue_Triangle_Stripes_3.jpg,Blue_Plus_Dots_2.jpg,Red_Star_Chess_3.jpg,left,492.3300000010058,true,NA,NA,NA,NA,NA,NA,NA,NA,true
5l8acRcC,379ol9dbtvr9qb2hghaat1q2k68y9b,3y4w8q93l3x6crineoxuxi1pg56vd3,5l8acRcC,2020-0188,2020-06-04,20:29:51,20:52:10,NA,incomplete,19,color,0,1,left,Purple_Star_Stripes_3.jpg,Purple_Triangle_Dots_1.jpg,Red_Plus_Grid_3.jpg,left,574.1449999987381,true,NA,NA,NA,NA,NA,NA,NA,NA,true
5l8acRcC,379ol9dbtvr9qb2hghaat1q2k68y9b,3y4w8q93l3x6crineoxuxi1pg56vd3,5l8acRcC,2020-0188,2020-06-04,20:29:51,20:52:10,NA,incomplete,20,number,1,1,right,Green_Plus_Grid_2.jpg,Green_Circle_Dots_1.jpg,Blue_Star_Chess_2.jpg,left,454.4449999993667,false,NA,NA,NA,NA,NA,NA,NA,NA,true
5l8acRcC,379ol9dbtvr9qb2hghaat1q2k68y9b,3y4w8q93l3x6crineoxuxi1pg56vd3,5l8acRcC,2020-0188,2020-06-04,20:29:51,20:52:10,NA,incomplete,21,number,1,0,left,Purple_Circle_Dots_4.jpg,Blue_Triangle_Stripes_4.jpg,Purple_Plus_Grid_3.jpg,right,853.0449999999255,false,NA,NA,NA,NA,NA,NA,NA,NA,true
5l8acRcC,379ol9dbtvr9qb2hghaat1q2k68y9b,3y4w8q93l3x6crineoxuxi1pg56vd3,5l8acRcC,2020-0188,2020-06-04,20:29:51,20:52:10,NA,incomplete,22,number,1,1,right,Purple_Circle_Stripes_2.jpg,Purple_Star_Chess_1.jpg,Blue_Triangle_Grid_2.jpg,right,793.0400000005029,true,NA,NA,NA,NA,NA,NA,NA,NA,true
5l8acRcC,379ol9dbtvr9qb2hghaat1q2k68y9b,3y4w8q93l3x6crineoxuxi1pg56vd3,5l8acRcC,2020-0188,2020-06-04,20:29:51,20:52:10,NA,incomplete,23,number,1,1,left,Red_Circle_Stripes_2.jpg,Blue_Triangle_Chess_2.jpg,Red_Plus_Dots_1.jpg,left,942.7700000014156,true,NA,NA,NA,NA,NA,NA,NA,NA,true
5l8acRcC,379ol9dbtvr9qb2hghaat1q2k68y9b,3y4w8q93l3x6crineoxuxi1pg56vd3,5l8acRcC,2020-0188,2020-06-04,20:29:51,20:52:10,NA,incomplete,24,number,1,1,left,Purple_Circle_Grid_3.jpg,Blue_Plus_Dots_3.jpg,Purple_Triangle_Chess_4.jpg,left,579.3350000021746,true,NA,NA,NA,NA,NA,NA,NA,NA,true
5l8acRcC,379ol9dbtvr9qb2hghaat1q2k68y9b,3y4w8q93l3x6crineoxuxi1pg56vd3,5l8acRcC,2020-0188,2020-06-04,20:29:51,20:52:10,NA,incomplete,25,number,1,0,left,Blue_Plus_Dots_2.jpg,Red_Star_Grid_2.jpg,Blue_Triangle_Stripes_1.jpg,left,681.8800000001211,true,NA,NA,NA,NA,NA,NA,NA,NA,true
5l8acRcC,379ol9dbtvr9qb2hghaat1q2k68y9b,3y4w8q93l3x6crineoxuxi1pg56vd3,5l8acRcC,2020-0188,2020-06-04,20:29:51,20:52:10,NA,incomplete,26,number,1,1,right,Red_Circle_Chess_2.jpg,Red_Triangle_Stripes_3.jpg,Green_Plus_Dots_2.jpg,left,771.93999999878,false,NA,NA,NA,NA,NA,NA,NA,NA,true
5l8acRcC,379ol9dbtvr9qb2hghaat1q2k68y9b,3y4w8q93l3x6crineoxuxi1pg56vd3,5l8acRcC,2020-0188,2020-06-04,20:29:51,20:52:10,NA,incomplete,27,number,1,0,left,Red_Star_Stripes_3.jpg,Blue_Plus_Dots_3.jpg,Red_Circle_Grid_1.jpg,left,627.1400000004796,true,NA,NA,NA,NA,NA,NA,NA,NA,true
5l8acRcC,379ol9dbtvr9qb2hghaat1q2k68y9b,3y4w8q93l3x6crineoxuxi1pg56vd3,5l8acRcC,2020-0188,2020-06-04,20:29:51,20:52:10,NA,incomplete,28,number,1,1,left,Blue_Circle_Grid_4.jpg,Purple_Plus_Dots_4.jpg,Blue_Star_Stripes_2.jpg,left,663.4549999980954,true,NA,NA,NA,NA,NA,NA,NA,NA,true
5l8acRcC,379ol9dbtvr9qb2hghaat1q2k68y9b,3y4w8q93l3x6crineoxuxi1pg56vd3,5l8acRcC,2020-0188,2020-06-04,20:29:51,20:52:10,NA,incomplete,29,number,1,1,left,Blue_Triangle_Chess_2.jpg,Red_Plus_Stripes_2.jpg,Blue_Circle_Grid_4.jpg,left,772.4300000008661,true,NA,NA,NA,NA,NA,NA,NA,NA,true
5l8acRcC,379ol9dbtvr9qb2hghaat1q2k68y9b,3y4w8q93l3x6crineoxuxi1pg56vd3,5l8acRcC,2020-0188,2020-06-04,20:29:51,20:52:10,NA,incomplete,30,number,1,1,right,Blue_Plus_Dots_2.jpg,Blue_Circle_Chess_1.jpg,Red_Triangle_Stripes_2.jpg,right,836.3849999986123,true,NA,NA,NA,NA,NA,NA,NA,NA,true
5l8acRcC,379ol9dbtvr9qb2hghaat1q2k68y9b,3y4w8q93l3x6crineoxuxi1pg56vd3,5l8acRcC,2020-0188,2020-06-04,20:29:51,20:52:10,NA,incomplete,31,number,1,0,left,Blue_Triangle_Dots_2.jpg,Red_Star_Grid_2.jpg,Blue_Plus_Stripes_3.jpg,right,975.4700000012526,false,NA,NA,NA,NA,NA,NA,NA,NA,true
5l8acRcC,379ol9dbtvr9qb2hghaat1q2k68y9b,3y4w8q93l3x6crineoxuxi1pg56vd3,5l8acRcC,2020-0188,2020-06-04,20:29:51,20:52:10,NA,incomplete,32,number,1,1,right,Red_Triangle_Grid_2.jpg,Red_Star_Stripes_4.jpg,Purple_Circle_Dots_2.jpg,right,727.8399999995017,true,NA,NA,NA,NA,NA,NA,NA,NA,true
5l8acRcC,379ol9dbtvr9qb2hghaat1q2k68y9b,3y4w8q93l3x6crineoxuxi1pg56vd3,5l8acRcC,2020-0188,2020-06-04,20:29:51,20:52:10,NA,incomplete,33,number,1,1,right,Purple_Circle_Chess_1.jpg,Purple_Star_Stripes_4.jpg,Red_Plus_Dots_1.jpg,right,725.989999998943,true,NA,NA,NA,NA,NA,NA,NA,NA,true
5l8acRcC,379ol9dbtvr9qb2hghaat1q2k68y9b,3y4w8q93l3x6crineoxuxi1pg56vd3,5l8acRcC,2020-0188,2020-06-04,20:29:51,20:52:10,NA,incomplete,34,number,1,1,right,Blue_Plus_Stripes_3.jpg,Blue_Circle_Chess_2.jpg,Red_Triangle_Grid_3.jpg,right,720.389999998617,true,NA,NA,NA,NA,NA,NA,NA,NA,true
5l8acRcC,379ol9dbtvr9qb2hghaat1q2k68y9b,3y4w8q93l3x6crineoxuxi1pg56vd3,5l8acRcC,2020-0188,2020-06-04,20:29:51,20:52:10,NA,incomplete,35,number,1,1,right,Purple_Plus_Stripes_4.jpg,Purple_Star_Grid_1.jpg,Green_Circle_Chess_4.jpg,right,845.6599999991013,true,NA,NA,NA,NA,NA,NA,NA,NA,true
5l8acRcC,379ol9dbtvr9qb2hghaat1q2k68y9b,3y4w8q93l3x6crineoxuxi1pg56vd3,5l8acRcC,2020-0188,2020-06-04,20:29:51,20:52:10,NA,incomplete,36,number,1,1,right,Red_Circle_Stripes_1.jpg,Red_Triangle_Chess_2.jpg,Blue_Plus_Dots_1.jpg,right,704.9200000001583,true,NA,NA,NA,NA,NA,NA,NA,NA,true
5l8acRcC,379ol9dbtvr9qb2hghaat1q2k68y9b,3y4w8q93l3x6crineoxuxi1pg56vd3,5l8acRcC,2020-0188,2020-06-04,20:29:51,20:52:10,NA,incomplete,37,number,1,1,right,Blue_Star_Dots_2.jpg,Blue_Circle_Chess_3.jpg,Red_Plus_Stripes_2.jpg,right,615.7649999987334,true,NA,NA,NA,NA,NA,NA,NA,NA,true
5l8acRcC,379ol9dbtvr9qb2hghaat1q2k68y9b,3y4w8q93l3x6crineoxuxi1pg56vd3,5l8acRcC,2020-0188,2020-06-04,20:29:51,20:52:10,NA,incomplete,38,number,1,1,left,Red_Circle_Grid_1.jpg,Purple_Plus_Stripes_1.jpg,Red_Star_Dots_4.jpg,left,554.3049999978393,true,NA,NA,NA,NA,NA,NA,NA,NA,true
5l8acRcC,379ol9dbtvr9qb2hghaat1q2k68y9b,3y4w8q93l3x6crineoxuxi1pg56vd3,5l8acRcC,2020-0188,2020-06-04,20:29:51,20:52:10,NA,incomplete,39,number,1,1,right,Green_Plus_Grid_3.jpg,Green_Star_Dots_4.jpg,Red_Triangle_Stripes_3.jpg,right,687.6000000011409,true,NA,NA,NA,NA,NA,NA,NA,NA,true
5l8acRcC,379ol9dbtvr9qb2hghaat1q2k68y9b,3y4w8q93l3x6crineoxuxi1pg56vd3,5l8acRcC,2020-0188,2020-06-04,20:29:51,20:52:10,NA,incomplete,0,color,0,1,left,Green_Circle_Dots_1.jpg,Green_Plus_Grid_2.jpg,Red_Star_Stripes_1.jpg,right,711.9449999991339,false,low,NA,NA,NA,NA,NA,NA,NA,false
5l8acRcC,379ol9dbtvr9qb2hghaat1q2k68y9b,3y4w8q93l3x6crineoxuxi1pg56vd3,5l8acRcC,2020-0188,2020-06-04,20:29:51,20:52:10,NA,incomplete,1,color,0,1,left,Green_Triangle_Stripes_3.jpg,Green_Circle_Chess_4.jpg,Blue_Plus_Grid_3.jpg,right,730.475000000326,false,low,NA,NA,NA,NA,NA,NA,NA,false
5l8acRcC,379ol9dbtvr9qb2hghaat1q2k68y9b,3y4w8q93l3x6crineoxuxi1pg56vd3,5l8acRcC,2020-0188,2020-06-04,20:29:51,20:52:10,NA,incomplete,2,color,0,1,left,Red_Plus_Stripes_3.jpg,Red_Triangle_Grid_2.jpg,Blue_Circle_Chess_3.jpg,left,567.7500000019791,true,low,NA,NA,NA,NA,NA,NA,NA,false
5l8acRcC,379ol9dbtvr9qb2hghaat1q2k68y9b,3y4w8q93l3x6crineoxuxi1pg56vd3,5l8acRcC,2020-0188,2020-06-04,20:29:51,20:52:10,NA,incomplete,3,color,0,1,left,Purple_Plus_Grid_4.jpg,Purple_Triangle_Dots_1.jpg,Green_Star_Stripes_4.jpg,left,603.4749999998603,true,low,NA,NA,NA,NA,NA,NA,NA,false
5l8acRcC,379ol9dbtvr9qb2hghaat1q2k68y9b,3y4w8q93l3x6crineoxuxi1pg56vd3,5l8acRcC,2020-0188,2020-06-04,20:29:51,20:52:10,NA,incomplete,4,color,0,1,right,Green_Triangle_Dots_2.jpg,Red_Plus_Grid_2.jpg,Green_Star_Chess_4.jpg,right,907.6349999996601,true,low,NA,NA,NA,NA,NA,NA,NA,false
5l8acRcC,379ol9dbtvr9qb2hghaat1q2k68y9b,3y4w8q93l3x6crineoxuxi1pg56vd3,5l8acRcC,2020-0188,2020-06-04,20:29:51,20:52:10,NA,incomplete,5,color,0,1,right,Green_Triangle_Dots_3.jpg,Red_Plus_Chess_3.jpg,Green_Circle_Stripes_4.jpg,left,863.3999999983935,false,low,NA,NA,NA,NA,NA,NA,NA,false
5l8acRcC,379ol9dbtvr9qb2hghaat1q2k68y9b,3y4w8q93l3x6crineoxuxi1pg56vd3,5l8acRcC,2020-0188,2020-06-04,20:29:51,20:52:10,NA,incomplete,6,color,0,1,left,Red_Triangle_Stripes_2.jpg,Red_Plus_Grid_3.jpg,Purple_Circle_Chess_2.jpg,right,911.2100000020582,false,low,NA,NA,NA,NA,NA,NA,NA,false
5l8acRcC,379ol9dbtvr9qb2hghaat1q2k68y9b,3y4w8q93l3x6crineoxuxi1pg56vd3,5l8acRcC,2020-0188,2020-06-04,20:29:51,20:52:10,NA,incomplete,7,color,0,1,left,Blue_Plus_Stripes_4.jpg,Blue_Triangle_Chess_1.jpg,Red_Circle_Grid_4.jpg,left,814.0700000004144,true,low,NA,NA,NA,NA,NA,NA,NA,false
5l8acRcC,379ol9dbtvr9qb2hghaat1q2k68y9b,3y4w8q93l3x6crineoxuxi1pg56vd3,5l8acRcC,2020-0188,2020-06-04,20:29:51,20:52:10,NA,incomplete,8,color,0,1,left,Purple_Circle_Dots_4.jpg,Purple_Star_Stripes_3.jpg,Blue_Plus_Grid_4.jpg,left,676.1499999993248,true,low,NA,NA,NA,NA,NA,NA,NA,false
5l8acRcC,379ol9dbtvr9qb2hghaat1q2k68y9b,3y4w8q93l3x6crineoxuxi1pg56vd3,5l8acRcC,2020-0188,2020-06-04,20:29:51,20:52:10,NA,incomplete,9,color,0,1,left,Red_Plus_Chess_3.jpg,Red_Star_Stripes_4.jpg,Blue_Triangle_Grid_3.jpg,left,624.5950000011362,true,low,NA,NA,NA,NA,NA,NA,NA,false
5l8acRcC,379ol9dbtvr9qb2hghaat1q2k68y9b,3y4w8q93l3x6crineoxuxi1pg56vd3,5l8acRcC,2020-0188,2020-06-04,20:29:51,20:52:10,NA,incomplete,10,color,0,1,left,Green_Plus_Stripes_3.jpg,Green_Triangle_Grid_1.jpg,Blue_Circle_Dots_3.jpg,left,490.0950000011362,true,low,NA,NA,NA,NA,NA,NA,NA,false
5l8acRcC,379ol9dbtvr9qb2hghaat1q2k68y9b,3y4w8q93l3x6crineoxuxi1pg56vd3,5l8acRcC,2020-0188,2020-06-04,20:29:51,20:52:10,NA,incomplete,11,color,0,1,left,Purple_Circle_Chess_3.jpg,Purple_Triangle_Stripes_1.jpg,Green_Star_Dots_3.jpg,left,513.0950000020675,true,low,NA,NA,NA,NA,NA,NA,NA,false
5l8acRcC,379ol9dbtvr9qb2hghaat1q2k68y9b,3y4w8q93l3x6crineoxuxi1pg56vd3,5l8acRcC,2020-0188,2020-06-04,20:29:51,20:52:10,NA,incomplete,12,color,0,0,left,Green_Star_Chess_1.jpg,Green_Circle_Stripes_4.jpg,Blue_Triangle_Dots_1.jpg,left,517.4949999999953,true,low,NA,NA,NA,NA,NA,NA,NA,false
5l8acRcC,379ol9dbtvr9qb2hghaat1q2k68y9b,3y4w8q93l3x6crineoxuxi1pg56vd3,5l8acRcC,2020-0188,2020-06-04,20:29:51,20:52:10,NA,incomplete,13,color,0,1,left,Purple_Triangle_Grid_2.jpg,Purple_Star_Chess_3.jpg,Green_Plus_Stripes_2.jpg,right,790.5949999985751,false,low,NA,NA,NA,NA,NA,NA,NA,false
5l8acRcC,379ol9dbtvr9qb2hghaat1q2k68y9b,3y4w8q93l3x6crineoxuxi1pg56vd3,5l8acRcC,2020-0188,2020-06-04,20:29:51,20:52:10,NA,incomplete,14,color,0,1,left,Red_Triangle_Grid_4.jpg,Red_Plus_Stripes_2.jpg,Purple_Star_Dots_4.jpg,left,838.7849999999162,true,low,NA,NA,NA,NA,NA,NA,NA,false
5l8acRcC,379ol9dbtvr9qb2hghaat1q2k68y9b,3y4w8q93l3x6crineoxuxi1pg56vd3,5l8acRcC,2020-0188,2020-06-04,20:29:51,20:52:10,NA,incomplete,15,color,0,0,left,Green_Plus_Grid_1.jpg,Green_Star_Stripes_2.jpg,Red_Circle_Chess_1.jpg,left,728.6050000003306,true,low,NA,NA,NA,NA,NA,NA,NA,false
5l8acRcC,379ol9dbtvr9qb2hghaat1q2k68y9b,3y4w8q93l3x6crineoxuxi1pg56vd3,5l8acRcC,2020-0188,2020-06-04,20:29:51,20:52:10,NA,incomplete,16,color,0,1,left,Purple_Plus_Grid_3.jpg,Purple_Circle_Chess_2.jpg,Blue_Triangle_Stripes_3.jpg,left,908.2349999990547,true,low,NA,NA,NA,NA,NA,NA,NA,false
5l8acRcC,379ol9dbtvr9qb2hghaat1q2k68y9b,3y4w8q93l3x6crineoxuxi1pg56vd3,5l8acRcC,2020-0188,2020-06-04,20:29:51,20:52:10,NA,incomplete,17,color,0,1,left,Green_Plus_Chess_4.jpg,Green_Circle_Stripes_3.jpg,Red_Star_Grid_4.jpg,left,642.4200000001583,true,low,NA,NA,NA,NA,NA,NA,NA,false
5l8acRcC,379ol9dbtvr9qb2hghaat1q2k68y9b,3y4w8q93l3x6crineoxuxi1pg56vd3,5l8acRcC,2020-0188,2020-06-04,20:29:51,20:52:10,NA,incomplete,18,color,0,1,left,Purple_Circle_Stripes_2.jpg,Purple_Star_Dots_4.jpg,Red_Plus_Chess_2.jpg,left,702.1850000019185,true,low,NA,NA,NA,NA,NA,NA,NA,false
5l8acRcC,379ol9dbtvr9qb2hghaat1q2k68y9b,3y4w8q93l3x6crineoxuxi1pg56vd3,5l8acRcC,2020-0188,2020-06-04,20:29:51,20:52:10,NA,incomplete,19,color,0,1,left,Green_Plus_Stripes_2.jpg,Green_Triangle_Dots_1.jpg,Blue_Circle_Chess_2.jpg,left,646.9600000018254,true,low,NA,NA,NA,NA,NA,NA,NA,false
5l8acRcC,379ol9dbtvr9qb2hghaat1q2k68y9b,3y4w8q93l3x6crineoxuxi1pg56vd3,5l8acRcC,2020-0188,2020-06-04,20:29:51,20:52:10,NA,incomplete,20,color,0,1,right,Purple_Triangle_Dots_4.jpg,Blue_Plus_Grid_4.jpg,Purple_Circle_Chess_1.jpg,right,566.2899999988731,true,low,NA,NA,NA,NA,NA,NA,NA,false
5l8acRcC,379ol9dbtvr9qb2hghaat1q2k68y9b,3y4w8q93l3x6crineoxuxi1pg56vd3,5l8acRcC,2020-0188,2020-06-04,20:29:51,20:52:10,NA,incomplete,21,color,0,1,left,Blue_Plus_Dots_4.jpg,Blue_Star_Stripes_3.jpg,Green_Circle_Chess_4.jpg,left,463.92000000202097,true,low,NA,NA,NA,NA,NA,NA,NA,false
5l8acRcC,379ol9dbtvr9qb2hghaat1q2k68y9b,3y4w8q93l3x6crineoxuxi1pg56vd3,5l8acRcC,2020-0188,2020-06-04,20:29:51,20:52:10,NA,incomplete,22,color,0,1,left,Red_Circle_Grid_4.jpg,Red_Triangle_Stripes_3.jpg,Green_Star_Chess_4.jpg,left,526.0950000011362,true,low,NA,NA,NA,NA,NA,NA,NA,false
5l8acRcC,379ol9dbtvr9qb2hghaat1q2k68y9b,3y4w8q93l3x6crineoxuxi1pg56vd3,5l8acRcC,2020-0188,2020-06-04,20:29:51,20:52:10,NA,incomplete,23,color,0,1,left,Purple_Circle_Grid_3.jpg,Purple_Star_Stripes_2.jpg,Blue_Triangle_Dots_3.jpg,left,624.4550000010058,true,low,NA,NA,NA,NA,NA,NA,NA,false
5l8acRcC,379ol9dbtvr9qb2hghaat1q2k68y9b,3y4w8q93l3x6crineoxuxi1pg56vd3,5l8acRcC,2020-0188,2020-06-04,20:29:51,20:52:10,NA,incomplete,24,color,0,1,right,Blue_Plus_Chess_2.jpg,Purple_Triangle_Grid_2.jpg,Blue_Star_Stripes_4.jpg,right,730.0300000024727,true,low,NA,NA,NA,NA,NA,NA,NA,false
5l8acRcC,379ol9dbtvr9qb2hghaat1q2k68y9b,3y4w8q93l3x6crineoxuxi1pg56vd3,5l8acRcC,2020-0188,2020-06-04,20:29:51,20:52:10,NA,incomplete,25,color,0,1,right,Purple_Plus_Stripes_2.jpg,Red_Circle_Chess_2.jpg,Purple_Star_Dots_1.jpg,right,496.05000000155997,true,low,NA,NA,NA,NA,NA,NA,NA,false
5l8acRcC,379ol9dbtvr9qb2hghaat1q2k68y9b,3y4w8q93l3x6crineoxuxi1pg56vd3,5l8acRcC,2020-0188,2020-06-04,20:29:51,20:52:10,NA,incomplete,26,color,0,1,right,Purple_Star_Grid_3.jpg,Blue_Plus_Stripes_3.jpg,Purple_Circle_Dots_2.jpg,right,551.0850000027567,true,low,NA,NA,NA,NA,NA,NA,NA,false
5l8acRcC,379ol9dbtvr9qb2hghaat1q2k68y9b,3y4w8q93l3x6crineoxuxi1pg56vd3,5l8acRcC,2020-0188,2020-06-04,20:29:51,20:52:10,NA,incomplete,27,color,0,1,left,Red_Circle_Dots_3.jpg,Red_Triangle_Stripes_2.jpg,Purple_Plus_Grid_3.jpg,left,502.00000000046566,true,low,NA,NA,NA,NA,NA,NA,NA,false
5l8acRcC,379ol9dbtvr9qb2hghaat1q2k68y9b,3y4w8q93l3x6crineoxuxi1pg56vd3,5l8acRcC,2020-0188,2020-06-04,20:29:51,20:52:10,NA,incomplete,28,color,0,1,right,Purple_Triangle_Stripes_3.jpg,Red_Plus_Chess_3.jpg,Purple_Circle_Grid_4.jpg,right,461.4849999998696,true,low,NA,NA,NA,NA,NA,NA,NA,false
5l8acRcC,379ol9dbtvr9qb2hghaat1q2k68y9b,3y4w8q93l3x6crineoxuxi1pg56vd3,5l8acRcC,2020-0188,2020-06-04,20:29:51,20:52:10,NA,incomplete,29,color,0,0,right,Purple_Star_Chess_3.jpg,Blue_Triangle_Stripes_3.jpg,Purple_Circle_Grid_1.jpg,right,500.76999999873806,true,low,NA,NA,NA,NA,NA,NA,NA,false
5l8acRcC,379ol9dbtvr9qb2hghaat1q2k68y9b,3y4w8q93l3x6crineoxuxi1pg56vd3,5l8acRcC,2020-0188,2020-06-04,20:29:51,20:52:10,NA,incomplete,30,number,1,1,left,Green_Plus_Stripes_4.jpg,Blue_Circle_Dots_4.jpg,Green_Triangle_Grid_2.jpg,left,753.1899999994785,true,low,NA,NA,NA,NA,NA,NA,NA,false
5l8acRcC,379ol9dbtvr9qb2hghaat1q2k68y9b,3y4w8q93l3x6crineoxuxi1pg56vd3,5l8acRcC,2020-0188,2020-06-04,20:29:51,20:52:10,NA,incomplete,31,number,1,0,left,Blue_Plus_Chess_4.jpg,Purple_Circle_Dots_4.jpg,Blue_Triangle_Stripes_1.jpg,left,645.2449999997625,true,low,NA,NA,NA,NA,NA,NA,NA,false
5l8acRcC,379ol9dbtvr9qb2hghaat1q2k68y9b,3y4w8q93l3x6crineoxuxi1pg56vd3,5l8acRcC,2020-0188,2020-06-04,20:29:51,20:52:10,NA,incomplete,32,number,1,0,right,Red_Triangle_Stripes_4.jpg,Red_Circle_Grid_3.jpg,Blue_Star_Dots_4.jpg,left,522.5700000009965,false,low,NA,NA,NA,NA,NA,NA,NA,false
5l8acRcC,379ol9dbtvr9qb2hghaat1q2k68y9b,3y4w8q93l3x6crineoxuxi1pg56vd3,5l8acRcC,2020-0188,2020-06-04,20:29:51,20:52:10,NA,incomplete,33,number,1,1,left,Green_Triangle_Dots_2.jpg,Red_Star_Stripes_2.jpg,Green_Circle_Grid_1.jpg,right,534.8150000027381,false,low,NA,NA,NA,NA,NA,NA,NA,false
5l8acRcC,379ol9dbtvr9qb2hghaat1q2k68y9b,3y4w8q93l3x6crineoxuxi1pg56vd3,5l8acRcC,2020-0188,2020-06-04,20:29:51,20:52:10,NA,incomplete,34,number,1,1,right,Blue_Star_Stripes_1.jpg,Blue_Plus_Chess_3.jpg,Red_Circle_Grid_1.jpg,right,734.46999999939,true,low,NA,NA,NA,NA,NA,NA,NA,false
5l8acRcC,379ol9dbtvr9qb2hghaat1q2k68y9b,3y4w8q93l3x6crineoxuxi1pg56vd3,5l8acRcC,2020-0188,2020-06-04,20:29:51,20:52:10,NA,incomplete,35,number,1,1,right,Green_Circle_Stripes_2.jpg,Green_Star_Dots_1.jpg,Purple_Plus_Chess_2.jpg,right,773.0999999984633,true,low,NA,NA,NA,NA,NA,NA,NA,false
5l8acRcC,379ol9dbtvr9qb2hghaat1q2k68y9b,3y4w8q93l3x6crineoxuxi1pg56vd3,5l8acRcC,2020-0188,2020-06-04,20:29:51,20:52:10,NA,incomplete,36,number,1,0,left,Green_Triangle_Dots_2.jpg,Purple_Circle_Grid_2.jpg,Green_Plus_Chess_3.jpg,left,744.2999999984168,true,low,NA,NA,NA,NA,NA,NA,NA,false
5l8acRcC,379ol9dbtvr9qb2hghaat1q2k68y9b,3y4w8q93l3x6crineoxuxi1pg56vd3,5l8acRcC,2020-0188,2020-06-04,20:29:51,20:52:10,NA,incomplete,37,number,1,1,left,Green_Circle_Chess_1.jpg,Blue_Triangle_Stripes_1.jpg,Green_Star_Grid_2.jpg,left,630.6550000008428,true,low,NA,NA,NA,NA,NA,NA,NA,false
5l8acRcC,379ol9dbtvr9qb2hghaat1q2k68y9b,3y4w8q93l3x6crineoxuxi1pg56vd3,5l8acRcC,2020-0188,2020-06-04,20:29:51,20:52:10,NA,incomplete,38,number,1,1,right,Green_Triangle_Chess_4.jpg,Green_Plus_Dots_2.jpg,Purple_Star_Grid_4.jpg,right,659.6100000024308,true,low,NA,NA,NA,NA,NA,NA,NA,false
5l8acRcC,379ol9dbtvr9qb2hghaat1q2k68y9b,3y4w8q93l3x6crineoxuxi1pg56vd3,5l8acRcC,2020-0188,2020-06-04,20:29:51,20:52:10,NA,incomplete,39,number,1,1,right,Purple_Plus_Chess_2.jpg,Purple_Circle_Grid_4.jpg,Red_Star_Dots_2.jpg,right,720.5949999989243,true,low,NA,NA,NA,NA,NA,NA,NA,false
5l8acRcC,379ol9dbtvr9qb2hghaat1q2k68y9b,3y4w8q93l3x6crineoxuxi1pg56vd3,5l8acRcC,2020-0188,2020-06-04,20:29:51,20:52:10,NA,incomplete,40,number,1,1,right,Blue_Triangle_Stripes_2.jpg,Blue_Plus_Dots_3.jpg,Red_Circle_Grid_2.jpg,right,589.8049999995856,true,low,NA,NA,NA,NA,NA,NA,NA,false
5l8acRcC,379ol9dbtvr9qb2hghaat1q2k68y9b,3y4w8q93l3x6crineoxuxi1pg56vd3,5l8acRcC,2020-0188,2020-06-04,20:29:51,20:52:10,NA,incomplete,41,number,1,1,left,Red_Circle_Grid_3.jpg,Blue_Triangle_Chess_3.jpg,Red_Star_Dots_2.jpg,left,701.0099999970989,true,low,NA,NA,NA,NA,NA,NA,NA,false
5l8acRcC,379ol9dbtvr9qb2hghaat1q2k68y9b,3y4w8q93l3x6crineoxuxi1pg56vd3,5l8acRcC,2020-0188,2020-06-04,20:29:51,20:52:10,NA,incomplete,42,number,1,1,right,Blue_Triangle_Grid_1.jpg,Blue_Plus_Dots_4.jpg,Purple_Star_Stripes_1.jpg,right,550.4149999978254,true,low,NA,NA,NA,NA,NA,NA,NA,false
5l8acRcC,379ol9dbtvr9qb2hghaat1q2k68y9b,3y4w8q93l3x6crineoxuxi1pg56vd3,5l8acRcC,2020-0188,2020-06-04,20:29:51,20:52:10,NA,incomplete,43,number,1,1,right,Purple_Star_Stripes_2.jpg,Purple_Circle_Grid_1.jpg,Green_Triangle_Chess_2.jpg,right,633.5500000022585,true,low,NA,NA,NA,NA,NA,NA,NA,false
5l8acRcC,379ol9dbtvr9qb2hghaat1q2k68y9b,3y4w8q93l3x6crineoxuxi1pg56vd3,5l8acRcC,2020-0188,2020-06-04,20:29:51,20:52:10,NA,incomplete,44,number,1,1,left,Red_Triangle_Dots_1.jpg,Blue_Star_Stripes_1.jpg,Red_Plus_Grid_2.jpg,left,497.9750000019558,true,low,NA,NA,NA,NA,NA,NA,NA,false
5l8acRcC,379ol9dbtvr9qb2hghaat1q2k68y9b,3y4w8q93l3x6crineoxuxi1pg56vd3,5l8acRcC,2020-0188,2020-06-04,20:29:51,20:52:10,NA,incomplete,45,number,1,1,right,Green_Circle_Grid_4.jpg,Green_Star_Chess_3.jpg,Purple_Triangle_Stripes_4.jpg,right,613.7749999980442,true,low,NA,NA,NA,NA,NA,NA,NA,false
5l8acRcC,379ol9dbtvr9qb2hghaat1q2k68y9b,3y4w8q93l3x6crineoxuxi1pg56vd3,5l8acRcC,2020-0188,2020-06-04,20:29:51,20:52:10,NA,incomplete,46,number,1,1,right,Blue_Triangle_Dots_4.jpg,Blue_Plus_Grid_3.jpg,Green_Star_Stripes_4.jpg,right,839.7449999974342,true,low,NA,NA,NA,NA,NA,NA,NA,false
5l8acRcC,379ol9dbtvr9qb2hghaat1q2k68y9b,3y4w8q93l3x6crineoxuxi1pg56vd3,5l8acRcC,2020-0188,2020-06-04,20:29:51,20:52:10,NA,incomplete,47,number,1,0,right,Blue_Triangle_Stripes_4.jpg,Blue_Star_Grid_1.jpg,Green_Plus_Chess_4.jpg,right,555.0000000003492,true,low,NA,NA,NA,NA,NA,NA,NA,false
5l8acRcC,379ol9dbtvr9qb2hghaat1q2k68y9b,3y4w8q93l3x6crineoxuxi1pg56vd3,5l8acRcC,2020-0188,2020-06-04,20:29:51,20:52:10,NA,incomplete,48,number,1,1,left,Green_Circle_Chess_1.jpg,Red_Triangle_Grid_1.jpg,Green_Plus_Stripes_2.jpg,left,531.6349999994272,true,low,NA,NA,NA,NA,NA,NA,NA,false
5l8acRcC,379ol9dbtvr9qb2hghaat1q2k68y9b,3y4w8q93l3x6crineoxuxi1pg56vd3,5l8acRcC,2020-0188,2020-06-04,20:29:51,20:52:10,NA,incomplete,49,number,1,1,left,Green_Circle_Stripes_2.jpg,Purple_Plus_Chess_2.jpg,Green_Star_Grid_1.jpg,left,672.0400000013178,true,low,NA,NA,NA,NA,NA,NA,NA,false
5l8acRcC,379ol9dbtvr9qb2hghaat1q2k68y9b,3y4w8q93l3x6crineoxuxi1pg56vd3,5l8acRcC,2020-0188,2020-06-04,20:29:51,20:52:10,NA,incomplete,50,number,1,0,right,Blue_Triangle_Stripes_1.jpg,Blue_Star_Grid_2.jpg,Red_Plus_Chess_1.jpg,right,596.2050000015879,true,low,NA,NA,NA,NA,NA,NA,NA,false
5l8acRcC,379ol9dbtvr9qb2hghaat1q2k68y9b,3y4w8q93l3x6crineoxuxi1pg56vd3,5l8acRcC,2020-0188,2020-06-04,20:29:51,20:52:10,NA,incomplete,51,number,1,1,right,Blue_Plus_Grid_3.jpg,Blue_Star_Stripes_1.jpg,Red_Circle_Chess_3.jpg,right,711.704999997979,true,low,NA,NA,NA,NA,NA,NA,NA,false
5l8acRcC,379ol9dbtvr9qb2hghaat1q2k68y9b,3y4w8q93l3x6crineoxuxi1pg56vd3,5l8acRcC,2020-0188,2020-06-04,20:29:51,20:52:10,NA,incomplete,52,number,1,1,right,Green_Circle_Chess_2.jpg,Green_Plus_Grid_4.jpg,Red_Triangle_Dots_2.jpg,right,667.8949999987381,true,low,NA,NA,NA,NA,NA,NA,NA,false
5l8acRcC,379ol9dbtvr9qb2hghaat1q2k68y9b,3y4w8q93l3x6crineoxuxi1pg56vd3,5l8acRcC,2020-0188,2020-06-04,20:29:51,20:52:10,NA,incomplete,53,number,1,1,left,Blue_Plus_Grid_3.jpg,Red_Triangle_Chess_3.jpg,Blue_Circle_Stripes_2.jpg,left,670.9699999991572,true,low,NA,NA,NA,NA,NA,NA,NA,false
5l8acRcC,379ol9dbtvr9qb2hghaat1q2k68y9b,3y4w8q93l3x6crineoxuxi1pg56vd3,5l8acRcC,2020-0188,2020-06-04,20:29:51,20:52:10,NA,incomplete,54,number,1,1,right,Green_Triangle_Dots_4.jpg,Green_Circle_Chess_3.jpg,Blue_Plus_Stripes_4.jpg,right,635.0549999987707,true,low,NA,NA,NA,NA,NA,NA,NA,false
5l8acRcC,379ol9dbtvr9qb2hghaat1q2k68y9b,3y4w8q93l3x6crineoxuxi1pg56vd3,5l8acRcC,2020-0188,2020-06-04,20:29:51,20:52:10,NA,incomplete,55,number,1,1,right,Green_Star_Chess_3.jpg,Green_Triangle_Dots_1.jpg,Purple_Circle_Stripes_3.jpg,right,568.0750000029802,true,low,NA,NA,NA,NA,NA,NA,NA,false
5l8acRcC,379ol9dbtvr9qb2hghaat1q2k68y9b,3y4w8q93l3x6crineoxuxi1pg56vd3,5l8acRcC,2020-0188,2020-06-04,20:29:51,20:52:10,NA,incomplete,56,number,1,1,left,Purple_Circle_Stripes_2.jpg,Blue_Triangle_Grid_2.jpg,Purple_Star_Dots_1.jpg,left,537.9600000014761,true,low,NA,NA,NA,NA,NA,NA,NA,false
5l8acRcC,379ol9dbtvr9qb2hghaat1q2k68y9b,3y4w8q93l3x6crineoxuxi1pg56vd3,5l8acRcC,2020-0188,2020-06-04,20:29:51,20:52:10,NA,incomplete,57,number,1,0,right,Red_Plus_Chess_2.jpg,Red_Circle_Grid_1.jpg,Purple_Triangle_Dots_2.jpg,right,789.4049999994459,true,low,NA,NA,NA,NA,NA,NA,NA,false
5l8acRcC,379ol9dbtvr9qb2hghaat1q2k68y9b,3y4w8q93l3x6crineoxuxi1pg56vd3,5l8acRcC,2020-0188,2020-06-04,20:29:51,20:52:10,NA,incomplete,58,number,1,1,right,Red_Circle_Stripes_2.jpg,Red_Star_Chess_1.jpg,Green_Plus_Dots_2.jpg,right,611.1600000003818,true,low,NA,NA,NA,NA,NA,NA,NA,false
5l8acRcC,379ol9dbtvr9qb2hghaat1q2k68y9b,3y4w8q93l3x6crineoxuxi1pg56vd3,5l8acRcC,2020-0188,2020-06-04,20:29:51,20:52:10,NA,incomplete,59,number,1,1,left,Purple_Plus_Stripes_4.jpg,Green_Circle_Grid_4.jpg,Purple_Star_Chess_3.jpg,right,1067.9600000001956,false,low,NA,NA,NA,NA,NA,NA,NA,false
5l8acRcC,379ol9dbtvr9qb2hghaat1q2k68y9b,3y4w8q93l3x6crineoxuxi1pg56vd3,5l8acRcC,2020-0188,2020-06-04,20:29:51,20:52:10,NA,incomplete,60,color,0,1,right,Purple_Star_Grid_1.jpg,Green_Circle_Chess_1.jpg,Purple_Plus_Stripes_4.jpg,left,583.650000000489,false,low,NA,NA,NA,NA,NA,NA,NA,false
5l8acRcC,379ol9dbtvr9qb2hghaat1q2k68y9b,3y4w8q93l3x6crineoxuxi1pg56vd3,5l8acRcC,2020-0188,2020-06-04,20:29:51,20:52:10,NA,incomplete,61,color,0,1,right,Blue_Triangle_Grid_3.jpg,Purple_Star_Stripes_3.jpg,Blue_Circle_Chess_1.jpg,left,756.7549999984913,false,low,NA,NA,NA,NA,NA,NA,NA,false
5l8acRcC,379ol9dbtvr9qb2hghaat1q2k68y9b,3y4w8q93l3x6crineoxuxi1pg56vd3,5l8acRcC,2020-0188,2020-06-04,20:29:51,20:52:10,NA,incomplete,62,color,0,1,left,Green_Star_Grid_3.jpg,Green_Plus_Chess_2.jpg,Blue_Circle_Stripes_3.jpg,left,692.0900000005495,true,low,NA,NA,NA,NA,NA,NA,NA,false
5l8acRcC,379ol9dbtvr9qb2hghaat1q2k68y9b,3y4w8q93l3x6crineoxuxi1pg56vd3,5l8acRcC,2020-0188,2020-06-04,20:29:51,20:52:10,NA,incomplete,63,color,0,0,left,Purple_Plus_Grid_3.jpg,Purple_Star_Dots_4.jpg,Blue_Circle_Chess_3.jpg,left,475.7499999977881,true,low,NA,NA,NA,NA,NA,NA,NA,false
5l8acRcC,379ol9dbtvr9qb2hghaat1q2k68y9b,3y4w8q93l3x6crineoxuxi1pg56vd3,5l8acRcC,2020-0188,2020-06-04,20:29:51,20:52:10,NA,incomplete,64,color,0,1,right,Red_Circle_Stripes_2.jpg,Purple_Star_Grid_2.jpg,Red_Plus_Chess_4.jpg,right,647.9249999974854,true,low,NA,NA,NA,NA,NA,NA,NA,false
5l8acRcC,379ol9dbtvr9qb2hghaat1q2k68y9b,3y4w8q93l3x6crineoxuxi1pg56vd3,5l8acRcC,2020-0188,2020-06-04,20:29:51,20:52:10,NA,incomplete,65,color,0,1,left,Red_Triangle_Dots_4.jpg,Red_Circle_Stripes_2.jpg,Green_Plus_Chess_4.jpg,left,566.1900000013411,true,low,NA,NA,NA,NA,NA,NA,NA,false
5l8acRcC,379ol9dbtvr9qb2hghaat1q2k68y9b,3y4w8q93l3x6crineoxuxi1pg56vd3,5l8acRcC,2020-0188,2020-06-04,20:29:51,20:52:10,NA,incomplete,66,color,0,1,right,Purple_Triangle_Chess_4.jpg,Red_Circle_Grid_4.jpg,Purple_Plus_Dots_1.jpg,right,526.8450000002049,true,low,NA,NA,NA,NA,NA,NA,NA,false
5l8acRcC,379ol9dbtvr9qb2hghaat1q2k68y9b,3y4w8q93l3x6crineoxuxi1pg56vd3,5l8acRcC,2020-0188,2020-06-04,20:29:51,20:52:10,NA,incomplete,67,color,0,1,left,Purple_Plus_Dots_1.jpg,Purple_Circle_Stripes_4.jpg,Red_Star_Grid_1.jpg,left,488.87500000267755,true,low,NA,NA,NA,NA,NA,NA,NA,false
5l8acRcC,379ol9dbtvr9qb2hghaat1q2k68y9b,3y4w8q93l3x6crineoxuxi1pg56vd3,5l8acRcC,2020-0188,2020-06-04,20:29:51,20:52:10,NA,incomplete,68,color,0,1,left,Purple_Circle_Chess_3.jpg,Purple_Star_Stripes_4.jpg,Green_Plus_Dots_3.jpg,left,534.980000000447,true,low,NA,NA,NA,NA,NA,NA,NA,false
5l8acRcC,379ol9dbtvr9qb2hghaat1q2k68y9b,3y4w8q93l3x6crineoxuxi1pg56vd3,5l8acRcC,2020-0188,2020-06-04,20:29:51,20:52:10,NA,incomplete,69,color,0,1,right,Blue_Plus_Stripes_4.jpg,Purple_Triangle_Grid_4.jpg,Blue_Star_Chess_3.jpg,right,453.3399999999674,true,low,NA,NA,NA,NA,NA,NA,NA,false
5l8acRcC,379ol9dbtvr9qb2hghaat1q2k68y9b,3y4w8q93l3x6crineoxuxi1pg56vd3,5l8acRcC,2020-0188,2020-06-04,20:29:51,20:52:10,NA,incomplete,70,color,0,1,right,Purple_Triangle_Chess_2.jpg,Red_Plus_Grid_2.jpg,Purple_Circle_Stripes_1.jpg,right,451.60499999835156,true,low,NA,NA,NA,NA,NA,NA,NA,false
5l8acRcC,379ol9dbtvr9qb2hghaat1q2k68y9b,3y4w8q93l3x6crineoxuxi1pg56vd3,5l8acRcC,2020-0188,2020-06-04,20:29:51,20:52:10,NA,incomplete,71,color,0,0,left,Blue_Plus_Chess_3.jpg,Blue_Star_Stripes_1.jpg,Purple_Circle_Grid_3.jpg,left,455.504999998142,true,low,NA,NA,NA,NA,NA,NA,NA,false
5l8acRcC,379ol9dbtvr9qb2hghaat1q2k68y9b,3y4w8q93l3x6crineoxuxi1pg56vd3,5l8acRcC,2020-0188,2020-06-04,20:29:51,20:52:10,NA,incomplete,72,color,0,1,right,Blue_Triangle_Stripes_1.jpg,Red_Star_Dots_1.jpg,Blue_Plus_Grid_4.jpg,right,527.5599999986589,true,low,NA,NA,NA,NA,NA,NA,NA,false
5l8acRcC,379ol9dbtvr9qb2hghaat1q2k68y9b,3y4w8q93l3x6crineoxuxi1pg56vd3,5l8acRcC,2020-0188,2020-06-04,20:29:51,20:52:10,NA,incomplete,73,color,0,1,left,Green_Star_Grid_2.jpg,Green_Triangle_Dots_1.jpg,Purple_Circle_Chess_2.jpg,left,491.8500000020722,true,low,NA,NA,NA,NA,NA,NA,NA,false
5l8acRcC,379ol9dbtvr9qb2hghaat1q2k68y9b,3y4w8q93l3x6crineoxuxi1pg56vd3,5l8acRcC,2020-0188,2020-06-04,20:29:51,20:52:10,NA,incomplete,74,color,0,1,right,Purple_Plus_Stripes_1.jpg,Blue_Star_Grid_1.jpg,Purple_Triangle_Dots_3.jpg,right,486.5700000009965,true,low,NA,NA,NA,NA,NA,NA,NA,false
5l8acRcC,379ol9dbtvr9qb2hghaat1q2k68y9b,3y4w8q93l3x6crineoxuxi1pg56vd3,5l8acRcC,2020-0188,2020-06-04,20:29:51,20:52:10,NA,incomplete,75,color,0,0,right,Red_Circle_Stripes_2.jpg,Green_Triangle_Chess_2.jpg,Red_Plus_Grid_1.jpg,right,705.4299999980722,true,low,NA,NA,NA,NA,NA,NA,NA,false
5l8acRcC,379ol9dbtvr9qb2hghaat1q2k68y9b,3y4w8q93l3x6crineoxuxi1pg56vd3,5l8acRcC,2020-0188,2020-06-04,20:29:51,20:52:10,NA,incomplete,76,color,0,1,right,Purple_Plus_Grid_4.jpg,Green_Circle_Stripes_4.jpg,Purple_Triangle_Chess_3.jpg,right,600.329999997397,true,low,NA,NA,NA,NA,NA,NA,NA,false
5l8acRcC,379ol9dbtvr9qb2hghaat1q2k68y9b,3y4w8q93l3x6crineoxuxi1pg56vd3,5l8acRcC,2020-0188,2020-06-04,20:29:51,20:52:10,NA,incomplete,77,color,0,1,left,Green_Star_Stripes_2.jpg,Green_Triangle_Dots_3.jpg,Red_Circle_Chess_2.jpg,left,525.7049999999581,true,low,NA,NA,NA,NA,NA,NA,NA,false
5l8acRcC,379ol9dbtvr9qb2hghaat1q2k68y9b,3y4w8q93l3x6crineoxuxi1pg56vd3,5l8acRcC,2020-0188,2020-06-04,20:29:51,20:52:10,NA,incomplete,78,color,0,1,right,Purple_Triangle_Chess_1.jpg,Blue_Plus_Stripes_1.jpg,Purple_Star_Dots_3.jpg,right,473.21500000171363,true,low,NA,NA,NA,NA,NA,NA,NA,false
5l8acRcC,379ol9dbtvr9qb2hghaat1q2k68y9b,3y4w8q93l3x6crineoxuxi1pg56vd3,5l8acRcC,2020-0188,2020-06-04,20:29:51,20:52:10,NA,incomplete,79,color,0,1,right,Green_Triangle_Dots_2.jpg,Red_Plus_Chess_2.jpg,Green_Star_Grid_3.jpg,right,396.5600000011036,true,low,NA,NA,NA,NA,NA,NA,NA,false
5l8acRcC,379ol9dbtvr9qb2hghaat1q2k68y9b,3y4w8q93l3x6crineoxuxi1pg56vd3,5l8acRcC,2020-0188,2020-06-04,20:29:51,20:52:10,NA,incomplete,80,color,0,1,right,Red_Star_Chess_1.jpg,Blue_Circle_Stripes_1.jpg,Red_Triangle_Grid_4.jpg,right,443.32500000018626,true,low,NA,NA,NA,NA,NA,NA,NA,false
5l8acRcC,379ol9dbtvr9qb2hghaat1q2k68y9b,3y4w8q93l3x6crineoxuxi1pg56vd3,5l8acRcC,2020-0188,2020-06-04,20:29:51,20:52:10,NA,incomplete,81,color,0,1,right,Blue_Star_Chess_4.jpg,Green_Plus_Grid_4.jpg,Blue_Circle_Dots_2.jpg,right,623.8950000006007,true,low,NA,NA,NA,NA,NA,NA,NA,false
5l8acRcC,379ol9dbtvr9qb2hghaat1q2k68y9b,3y4w8q93l3x6crineoxuxi1pg56vd3,5l8acRcC,2020-0188,2020-06-04,20:29:51,20:52:10,NA,incomplete,82,color,0,0,right,Blue_Circle_Grid_1.jpg,Red_Plus_Dots_1.jpg,Blue_Triangle_Stripes_4.jpg,right,469.04000000003725,true,low,NA,NA,NA,NA,NA,NA,NA,false
5l8acRcC,379ol9dbtvr9qb2hghaat1q2k68y9b,3y4w8q93l3x6crineoxuxi1pg56vd3,5l8acRcC,2020-0188,2020-06-04,20:29:51,20:52:10,NA,incomplete,83,color,0,1,left,Blue_Triangle_Stripes_2.jpg,Blue_Plus_Grid_1.jpg,Green_Circle_Dots_2.jpg,right,625.7199999999721,false,low,NA,NA,NA,NA,NA,NA,NA,false
5l8acRcC,379ol9dbtvr9qb2hghaat1q2k68y9b,3y4w8q93l3x6crineoxuxi1pg56vd3,5l8acRcC,2020-0188,2020-06-04,20:29:51,20:52:10,NA,incomplete,84,color,0,1,right,Purple_Circle_Stripes_4.jpg,Blue_Star_Grid_4.jpg,Purple_Triangle_Dots_1.jpg,left,513.4300000027288,false,low,NA,NA,NA,NA,NA,NA,NA,false
5l8acRcC,379ol9dbtvr9qb2hghaat1q2k68y9b,3y4w8q93l3x6crineoxuxi1pg56vd3,5l8acRcC,2020-0188,2020-06-04,20:29:51,20:52:10,NA,incomplete,85,color,0,1,right,Red_Star_Grid_3.jpg,Blue_Plus_Chess_3.jpg,Red_Circle_Dots_1.jpg,right,448.3849999997765,true,low,NA,NA,NA,NA,NA,NA,NA,false
5l8acRcC,379ol9dbtvr9qb2hghaat1q2k68y9b,3y4w8q93l3x6crineoxuxi1pg56vd3,5l8acRcC,2020-0188,2020-06-04,20:29:51,20:52:10,NA,incomplete,86,color,0,1,right,Red_Circle_Stripes_3.jpg,Green_Triangle_Dots_3.jpg,Red_Star_Chess_4.jpg,right,491.95999999938067,true,low,NA,NA,NA,NA,NA,NA,NA,false
5l8acRcC,379ol9dbtvr9qb2hghaat1q2k68y9b,3y4w8q93l3x6crineoxuxi1pg56vd3,5l8acRcC,2020-0188,2020-06-04,20:29:51,20:52:10,NA,incomplete,87,color,0,0,left,Green_Circle_Grid_4.jpg,Green_Triangle_Chess_3.jpg,Blue_Plus_Stripes_4.jpg,right,477.57500000076834,false,low,NA,NA,NA,NA,NA,NA,NA,false
5l8acRcC,379ol9dbtvr9qb2hghaat1q2k68y9b,3y4w8q93l3x6crineoxuxi1pg56vd3,5l8acRcC,2020-0188,2020-06-04,20:29:51,20:52:10,NA,incomplete,88,color,0,1,right,Green_Plus_Chess_3.jpg,Blue_Triangle_Stripes_3.jpg,Green_Circle_Grid_4.jpg,left,571.3199999991339,false,low,NA,NA,NA,NA,NA,NA,NA,false
5l8acRcC,379ol9dbtvr9qb2hghaat1q2k68y9b,3y4w8q93l3x6crineoxuxi1pg56vd3,5l8acRcC,2020-0188,2020-06-04,20:29:51,20:52:10,NA,incomplete,89,color,0,0,left,Red_Circle_Dots_3.jpg,Red_Star_Stripes_4.jpg,Blue_Plus_Chess_3.jpg,left,477.13999999908265,true,low,NA,NA,NA,NA,NA,NA,NA,false
5l8acRcC,379ol9dbtvr9qb2hghaat1q2k68y9b,3y4w8q93l3x6crineoxuxi1pg56vd3,5l8acRcC,2020-0188,2020-06-04,20:29:51,20:52:10,NA,incomplete,90,number,1,1,left,Green_Circle_Chess_2.jpg,Blue_Triangle_Stripes_2.jpg,Green_Star_Dots_3.jpg,left,497.64999999746215,true,low,NA,NA,NA,NA,NA,NA,NA,false
5l8acRcC,379ol9dbtvr9qb2hghaat1q2k68y9b,3y4w8q93l3x6crineoxuxi1pg56vd3,5l8acRcC,2020-0188,2020-06-04,20:29:51,20:52:10,NA,incomplete,91,number,1,1,right,Purple_Circle_Grid_2.jpg,Purple_Plus_Dots_4.jpg,Red_Star_Chess_2.jpg,right,638.3700000005774,true,low,NA,NA,NA,NA,NA,NA,NA,false
5l8acRcC,379ol9dbtvr9qb2hghaat1q2k68y9b,3y4w8q93l3x6crineoxuxi1pg56vd3,5l8acRcC,2020-0188,2020-06-04,20:29:51,20:52:10,NA,incomplete,92,number,1,0,right,Blue_Circle_Grid_1.jpg,Blue_Plus_Chess_2.jpg,Red_Triangle_Stripes_1.jpg,left,421.2499999994179,false,low,NA,NA,NA,NA,NA,NA,NA,false
5l8acRcC,379ol9dbtvr9qb2hghaat1q2k68y9b,3y4w8q93l3x6crineoxuxi1pg56vd3,5l8acRcC,2020-0188,2020-06-04,20:29:51,20:52:10,NA,incomplete,93,number,1,0,left,Blue_Star_Stripes_2.jpg,Purple_Circle_Dots_2.jpg,Blue_Plus_Chess_4.jpg,left,538.4650000014808,true,low,NA,NA,NA,NA,NA,NA,NA,false
5l8acRcC,379ol9dbtvr9qb2hghaat1q2k68y9b,3y4w8q93l3x6crineoxuxi1pg56vd3,5l8acRcC,2020-0188,2020-06-04,20:29:51,20:52:10,NA,incomplete,94,number,1,1,left,Blue_Plus_Chess_1.jpg,Green_Triangle_Stripes_1.jpg,Blue_Star_Dots_3.jpg,right,424.63999999745283,false,low,NA,NA,NA,NA,NA,NA,NA,false
5l8acRcC,379ol9dbtvr9qb2hghaat1q2k68y9b,3y4w8q93l3x6crineoxuxi1pg56vd3,5l8acRcC,2020-0188,2020-06-04,20:29:51,20:52:10,NA,incomplete,95,number,1,1,right,Red_Triangle_Grid_3.jpg,Red_Plus_Stripes_1.jpg,Purple_Circle_Chess_3.jpg,right,641.6349999998929,true,low,NA,NA,NA,NA,NA,NA,NA,false
5l8acRcC,379ol9dbtvr9qb2hghaat1q2k68y9b,3y4w8q93l3x6crineoxuxi1pg56vd3,5l8acRcC,2020-0188,2020-06-04,20:29:51,20:52:10,NA,incomplete,96,number,1,1,right,Green_Triangle_Stripes_4.jpg,Green_Plus_Grid_2.jpg,Purple_Star_Dots_4.jpg,left,527.2250000016065,false,low,NA,NA,NA,NA,NA,NA,NA,false
5l8acRcC,379ol9dbtvr9qb2hghaat1q2k68y9b,3y4w8q93l3x6crineoxuxi1pg56vd3,5l8acRcC,2020-0188,2020-06-04,20:29:51,20:52:10,NA,incomplete,97,number,1,1,left,Purple_Plus_Dots_4.jpg,Blue_Star_Grid_4.jpg,Purple_Circle_Stripes_3.jpg,right,480.3950000022305,false,low,NA,NA,NA,NA,NA,NA,NA,false
5l8acRcC,379ol9dbtvr9qb2hghaat1q2k68y9b,3y4w8q93l3x6crineoxuxi1pg56vd3,5l8acRcC,2020-0188,2020-06-04,20:29:51,20:52:10,NA,incomplete,98,number,1,1,left,Blue_Plus_Stripes_1.jpg,Red_Star_Chess_1.jpg,Blue_Circle_Grid_4.jpg,right,419.2799999982817,false,low,NA,NA,NA,NA,NA,NA,NA,false
5l8acRcC,379ol9dbtvr9qb2hghaat1q2k68y9b,3y4w8q93l3x6crineoxuxi1pg56vd3,5l8acRcC,2020-0188,2020-06-04,20:29:51,20:52:10,NA,incomplete,99,number,1,1,right,Red_Circle_Grid_3.jpg,Red_Triangle_Chess_2.jpg,Purple_Plus_Stripes_3.jpg,left,497.54500000202097,false,low,NA,NA,NA,NA,NA,NA,NA,false
5l8acRcC,379ol9dbtvr9qb2hghaat1q2k68y9b,3y4w8q93l3x6crineoxuxi1pg56vd3,5l8acRcC,2020-0188,2020-06-04,20:29:51,20:52:10,NA,incomplete,100,number,1,1,left,Blue_Triangle_Grid_1.jpg,Green_Plus_Dots_1.jpg,Blue_Circle_Stripes_3.jpg,left,468.36500000057276,true,low,NA,NA,NA,NA,NA,NA,NA,false
5l8acRcC,379ol9dbtvr9qb2hghaat1q2k68y9b,3y4w8q93l3x6crineoxuxi1pg56vd3,5l8acRcC,2020-0188,2020-06-04,20:29:51,20:52:10,NA,incomplete,101,number,1,1,left,Blue_Plus_Chess_2.jpg,Red_Star_Stripes_2.jpg,Blue_Triangle_Dots_1.jpg,left,534.0250000008382,true,low,NA,NA,NA,NA,NA,NA,NA,false
5l8acRcC,379ol9dbtvr9qb2hghaat1q2k68y9b,3y4w8q93l3x6crineoxuxi1pg56vd3,5l8acRcC,2020-0188,2020-06-04,20:29:51,20:52:10,NA,incomplete,102,number,1,1,right,Purple_Triangle_Chess_1.jpg,Purple_Circle_Dots_4.jpg,Red_Star_Stripes_1.jpg,left,537.6250000008149,false,low,NA,NA,NA,NA,NA,NA,NA,false
5l8acRcC,379ol9dbtvr9qb2hghaat1q2k68y9b,3y4w8q93l3x6crineoxuxi1pg56vd3,5l8acRcC,2020-0188,2020-06-04,20:29:51,20:52:10,NA,incomplete,103,number,1,1,left,Blue_Star_Stripes_3.jpg,Red_Circle_Dots_3.jpg,Blue_Plus_Chess_4.jpg,right,577.7999999991152,false,low,NA,NA,NA,NA,NA,NA,NA,false
5l8acRcC,379ol9dbtvr9qb2hghaat1q2k68y9b,3y4w8q93l3x6crineoxuxi1pg56vd3,5l8acRcC,2020-0188,2020-06-04,20:29:51,20:52:10,NA,incomplete,104,number,1,0,left,Purple_Plus_Grid_3.jpg,Green_Circle_Chess_3.jpg,Purple_Star_Stripes_1.jpg,left,534.2300000011455,true,low,NA,NA,NA,NA,NA,NA,NA,false
5l8acRcC,379ol9dbtvr9qb2hghaat1q2k68y9b,3y4w8q93l3x6crineoxuxi1pg56vd3,5l8acRcC,2020-0188,2020-06-04,20:29:51,20:52:10,NA,incomplete,105,number,1,0,right,Red_Star_Grid_1.jpg,Red_Circle_Chess_3.jpg,Blue_Triangle_Dots_1.jpg,left,470.8099999988917,false,low,NA,NA,NA,NA,NA,NA,NA,false
5l8acRcC,379ol9dbtvr9qb2hghaat1q2k68y9b,3y4w8q93l3x6crineoxuxi1pg56vd3,5l8acRcC,2020-0188,2020-06-04,20:29:51,20:52:10,NA,incomplete,106,number,1,1,left,Green_Star_Grid_2.jpg,Red_Plus_Dots_2.jpg,Green_Circle_Chess_4.jpg,right,353.59499999694526,false,low,NA,NA,NA,NA,NA,NA,NA,false
5l8acRcC,379ol9dbtvr9qb2hghaat1q2k68y9b,3y4w8q93l3x6crineoxuxi1pg56vd3,5l8acRcC,2020-0188,2020-06-04,20:29:51,20:52:10,NA,incomplete,107,number,1,1,left,Blue_Circle_Dots_4.jpg,Green_Star_Stripes_4.jpg,Blue_Triangle_Grid_3.jpg,right,469.03000000014435,false,low,NA,NA,NA,NA,NA,NA,NA,false
5l8acRcC,379ol9dbtvr9qb2hghaat1q2k68y9b,3y4w8q93l3x6crineoxuxi1pg56vd3,5l8acRcC,2020-0188,2020-06-04,20:29:51,20:52:10,NA,incomplete,108,number,1,0,left,Purple_Circle_Chess_2.jpg,Red_Star_Stripes_2.jpg,Purple_Plus_Grid_1.jpg,left,447.7299999999814,true,low,NA,NA,NA,NA,NA,NA,NA,false
5l8acRcC,379ol9dbtvr9qb2hghaat1q2k68y9b,3y4w8q93l3x6crineoxuxi1pg56vd3,5l8acRcC,2020-0188,2020-06-04,20:29:51,20:52:10,NA,incomplete,109,number,1,0,left,Red_Star_Stripes_2.jpg,Blue_Circle_Chess_2.jpg,Red_Plus_Grid_3.jpg,right,490.47000000067055,false,low,NA,NA,NA,NA,NA,NA,NA,false
5l8acRcC,379ol9dbtvr9qb2hghaat1q2k68y9b,3y4w8q93l3x6crineoxuxi1pg56vd3,5l8acRcC,2020-0188,2020-06-04,20:29:51,20:52:10,NA,incomplete,110,number,1,1,left,Red_Circle_Grid_3.jpg,Green_Plus_Dots_3.jpg,Red_Star_Stripes_1.jpg,right,413.349999998929,false,low,NA,NA,NA,NA,NA,NA,NA,false
5l8acRcC,379ol9dbtvr9qb2hghaat1q2k68y9b,3y4w8q93l3x6crineoxuxi1pg56vd3,5l8acRcC,2020-0188,2020-06-04,20:29:51,20:52:10,NA,incomplete,111,number,1,1,left,Purple_Star_Stripes_3.jpg,Green_Circle_Chess_3.jpg,Purple_Plus_Dots_2.jpg,right,378.10999999777414,false,low,NA,NA,NA,NA,NA,NA,NA,false
5l8acRcC,379ol9dbtvr9qb2hghaat1q2k68y9b,3y4w8q93l3x6crineoxuxi1pg56vd3,5l8acRcC,2020-0188,2020-06-04,20:29:51,20:52:10,NA,incomplete,112,number,1,1,left,Red_Triangle_Stripes_3.jpg,Purple_Star_Dots_3.jpg,Red_Plus_Grid_1.jpg,left,381.9149999981746,true,low,NA,NA,NA,NA,NA,NA,NA,false
5l8acRcC,379ol9dbtvr9qb2hghaat1q2k68y9b,3y4w8q93l3x6crineoxuxi1pg56vd3,5l8acRcC,2020-0188,2020-06-04,20:29:51,20:52:10,NA,incomplete,113,number,1,0,right,Blue_Plus_Stripes_2.jpg,Blue_Triangle_Grid_4.jpg,Purple_Star_Chess_2.jpg,left,421.1700000013225,false,low,NA,NA,NA,NA,NA,NA,NA,false
5l8acRcC,379ol9dbtvr9qb2hghaat1q2k68y9b,3y4w8q93l3x6crineoxuxi1pg56vd3,5l8acRcC,2020-0188,2020-06-04,20:29:51,20:52:10,NA,incomplete,114,number,1,1,left,Red_Triangle_Dots_1.jpg,Purple_Plus_Chess_1.jpg,Red_Circle_Grid_2.jpg,left,616.7949999980628,true,low,NA,NA,NA,NA,NA,NA,NA,false
5l8acRcC,379ol9dbtvr9qb2hghaat1q2k68y9b,3y4w8q93l3x6crineoxuxi1pg56vd3,5l8acRcC,2020-0188,2020-06-04,20:29:51,20:52:10,NA,incomplete,115,number,1,0,right,Blue_Triangle_Chess_2.jpg,Blue_Circle_Dots_3.jpg,Green_Star_Grid_2.jpg,right,338.04500000050757,true,low,NA,NA,NA,NA,NA,NA,NA,false
5l8acRcC,379ol9dbtvr9qb2hghaat1q2k68y9b,3y4w8q93l3x6crineoxuxi1pg56vd3,5l8acRcC,2020-0188,2020-06-04,20:29:51,20:52:10,NA,incomplete,116,number,1,1,left,Purple_Triangle_Stripes_1.jpg,Blue_Star_Grid_1.jpg,Purple_Circle_Chess_4.jpg,left,474.135000000475,true,low,NA,NA,NA,NA,NA,NA,NA,false
5l8acRcC,379ol9dbtvr9qb2hghaat1q2k68y9b,3y4w8q93l3x6crineoxuxi1pg56vd3,5l8acRcC,2020-0188,2020-06-04,20:29:51,20:52:10,NA,incomplete,117,number,1,0,left,Red_Plus_Stripes_3.jpg,Blue_Triangle_Grid_3.jpg,Red_Star_Chess_2.jpg,left,598.21500000183,true,low,NA,NA,NA,NA,NA,NA,NA,false
5l8acRcC,379ol9dbtvr9qb2hghaat1q2k68y9b,3y4w8q93l3x6crineoxuxi1pg56vd3,5l8acRcC,2020-0188,2020-06-04,20:29:51,20:52:10,NA,incomplete,118,number,1,1,left,Green_Circle_Grid_3.jpg,Red_Plus_Stripes_3.jpg,Green_Star_Chess_2.jpg,left,601.4800000012619,true,low,NA,NA,NA,NA,NA,NA,NA,false
5l8acRcC,379ol9dbtvr9qb2hghaat1q2k68y9b,3y4w8q93l3x6crineoxuxi1pg56vd3,5l8acRcC,2020-0188,2020-06-04,20:29:51,20:52:10,NA,incomplete,119,number,1,1,left,Green_Circle_Grid_4.jpg,Purple_Plus_Stripes_4.jpg,Green_Star_Dots_1.jpg,right,584.6850000016857,false,low,NA,NA,NA,NA,NA,NA,NA,false
5l8acRcC,379ol9dbtvr9qb2hghaat1q2k68y9b,3y4w8q93l3x6crineoxuxi1pg56vd3,5l8acRcC,2020-0188,2020-06-04,20:29:51,20:52:10,NA,incomplete,120,gender,2,1,right,C_M_14.jpg,C_F_05.jpg,A_M_02.jpg,NA,NA,NA,low,NA,NA,NA,NA,NA,NA,NA,false
5l8acRcC,379ol9dbtvr9qb2hghaat1q2k68y9b,3y4w8q93l3x6crineoxuxi1pg56vd3,5l8acRcC,2020-0188,2020-06-04,20:29:51,20:52:10,NA,incomplete,121,gender,2,1,left,C_F_02.jpg,A_F_12.jpg,C_M_07.jpg,right,817.230000000447,false,low,NA,NA,NA,NA,NA,NA,NA,false
5l8acRcC,379ol9dbtvr9qb2hghaat1q2k68y9b,3y4w8q93l3x6crineoxuxi1pg56vd3,5l8acRcC,2020-0188,2020-06-04,20:29:51,20:52:10,NA,incomplete,122,gender,2,0,left,C_F_13.jpg,A_F_04.jpg,C_M_14.jpg,left,1088.5399999970105,true,low,NA,NA,NA,NA,NA,NA,NA,false
5l8acRcC,379ol9dbtvr9qb2hghaat1q2k68y9b,3y4w8q93l3x6crineoxuxi1pg56vd3,5l8acRcC,2020-0188,2020-06-04,20:29:51,20:52:10,NA,incomplete,123,gender,2,1,right,C_F_07.jpg,C_M_03.jpg,A_F_04.jpg,left,913.4150000025984,false,low,NA,NA,NA,NA,NA,NA,NA,false
5l8acRcC,379ol9dbtvr9qb2hghaat1q2k68y9b,3y4w8q93l3x6crineoxuxi1pg56vd3,5l8acRcC,2020-0188,2020-06-04,20:29:51,20:52:10,NA,incomplete,124,gender,2,1,right,C_M_03.jpg,C_F_15.jpg,A_M_07.jpg,right,722.6399999998976,true,low,NA,NA,NA,NA,NA,NA,NA,false
5l8acRcC,379ol9dbtvr9qb2hghaat1q2k68y9b,3y4w8q93l3x6crineoxuxi1pg56vd3,5l8acRcC,2020-0188,2020-06-04,20:29:51,20:52:10,NA,incomplete,125,gender,2,0,right,A_M_16.jpg,A_F_11.jpg,C_M_10.jpg,right,877.1349999988452,true,low,NA,NA,NA,NA,NA,NA,NA,false
5l8acRcC,379ol9dbtvr9qb2hghaat1q2k68y9b,3y4w8q93l3x6crineoxuxi1pg56vd3,5l8acRcC,2020-0188,2020-06-04,20:29:51,20:52:10,NA,incomplete,126,gender,2,1,right,A_F_16.jpg,A_M_09.jpg,C_F_14.jpg,left,801.1049999988172,false,low,NA,NA,NA,NA,NA,NA,NA,false
5l8acRcC,379ol9dbtvr9qb2hghaat1q2k68y9b,3y4w8q93l3x6crineoxuxi1pg56vd3,5l8acRcC,2020-0188,2020-06-04,20:29:51,20:52:10,NA,incomplete,127,gender,2,1,left,A_M_09.jpg,C_M_14.jpg,A_F_06.jpg,right,965.5099999981467,false,low,NA,NA,NA,NA,NA,NA,NA,false
5l8acRcC,379ol9dbtvr9qb2hghaat1q2k68y9b,3y4w8q93l3x6crineoxuxi1pg56vd3,5l8acRcC,2020-0188,2020-06-04,20:29:51,20:52:10,NA,incomplete,128,gender,2,1,right,C_F_01.jpg,C_M_08.jpg,A_F_09.jpg,right,936.074999997858,true,low,NA,NA,NA,NA,NA,NA,NA,false
5l8acRcC,379ol9dbtvr9qb2hghaat1q2k68y9b,3y4w8q93l3x6crineoxuxi1pg56vd3,5l8acRcC,2020-0188,2020-06-04,20:29:51,20:52:10,NA,incomplete,129,gender,2,1,left,C_M_06.jpg,A_M_11.jpg,C_F_02.jpg,left,983.0099999997765,true,low,NA,NA,NA,NA,NA,NA,NA,false
5l8acRcC,379ol9dbtvr9qb2hghaat1q2k68y9b,3y4w8q93l3x6crineoxuxi1pg56vd3,5l8acRcC,2020-0188,2020-06-04,20:29:51,20:52:10,NA,incomplete,130,gender,2,1,left,A_F_01.jpg,C_F_15.jpg,A_M_13.jpg,left,654.6450000023469,true,low,NA,NA,NA,NA,NA,NA,NA,false
5l8acRcC,379ol9dbtvr9qb2hghaat1q2k68y9b,3y4w8q93l3x6crineoxuxi1pg56vd3,5l8acRcC,2020-0188,2020-06-04,20:29:51,20:52:10,NA,incomplete,131,gender,2,1,right,C_F_12.jpg,C_M_15.jpg,A_F_13.jpg,right,1038.3149999978486,true,low,NA,NA,NA,NA,NA,NA,NA,false
5l8acRcC,379ol9dbtvr9qb2hghaat1q2k68y9b,3y4w8q93l3x6crineoxuxi1pg56vd3,5l8acRcC,2020-0188,2020-06-04,20:29:51,20:52:10,NA,incomplete,132,gender,2,1,right,C_M_01.jpg,C_F_02.jpg,A_M_14.jpg,right,908.0050000010524,true,low,NA,NA,NA,NA,NA,NA,NA,false
5l8acRcC,379ol9dbtvr9qb2hghaat1q2k68y9b,3y4w8q93l3x6crineoxuxi1pg56vd3,5l8acRcC,2020-0188,2020-06-04,20:29:51,20:52:10,NA,incomplete,133,gender,2,1,left,C_M_16.jpg,A_M_15.jpg,C_F_10.jpg,left,569.4000000003725,true,low,NA,NA,NA,NA,NA,NA,NA,false
5l8acRcC,379ol9dbtvr9qb2hghaat1q2k68y9b,3y4w8q93l3x6crineoxuxi1pg56vd3,5l8acRcC,2020-0188,2020-06-04,20:29:51,20:52:10,NA,incomplete,134,gender,2,1,left,A_M_09.jpg,C_M_10.jpg,A_F_16.jpg,left,641.1299999998882,true,low,NA,NA,NA,NA,NA,NA,NA,false
5l8acRcC,379ol9dbtvr9qb2hghaat1q2k68y9b,3y4w8q93l3x6crineoxuxi1pg56vd3,5l8acRcC,2020-0188,2020-06-04,20:29:51,20:52:10,NA,incomplete,135,gender,2,0,left,A_M_07.jpg,C_M_08.jpg,A_F_03.jpg,left,555.544999999227,true,low,NA,NA,NA,NA,NA,NA,NA,false
5l8acRcC,379ol9dbtvr9qb2hghaat1q2k68y9b,3y4w8q93l3x6crineoxuxi1pg56vd3,5l8acRcC,2020-0188,2020-06-04,20:29:51,20:52:10,NA,incomplete,136,gender,2,1,right,C_M_16.jpg,C_F_09.jpg,A_M_01.jpg,left,833.1749999998137,false,low,NA,NA,NA,NA,NA,NA,NA,false
5l8acRcC,379ol9dbtvr9qb2hghaat1q2k68y9b,3y4w8q93l3x6crineoxuxi1pg56vd3,5l8acRcC,2020-0188,2020-06-04,20:29:51,20:52:10,NA,incomplete,137,gender,2,1,left,C_F_02.jpg,A_F_04.jpg,C_M_03.jpg,left,666.5849999990314,true,low,NA,NA,NA,NA,NA,NA,NA,false
5l8acRcC,379ol9dbtvr9qb2hghaat1q2k68y9b,3y4w8q93l3x6crineoxuxi1pg56vd3,5l8acRcC,2020-0188,2020-06-04,20:29:51,20:52:10,NA,incomplete,138,gender,2,1,left,C_M_05.jpg,A_M_07.jpg,C_F_02.jpg,left,836.7099999994971,true,low,NA,NA,NA,NA,NA,NA,NA,false
5l8acRcC,379ol9dbtvr9qb2hghaat1q2k68y9b,3y4w8q93l3x6crineoxuxi1pg56vd3,5l8acRcC,2020-0188,2020-06-04,20:29:51,20:52:10,NA,incomplete,139,gender,2,1,right,C_M_11.jpg,C_F_14.jpg,A_M_06.jpg,right,598.4300000017975,true,low,NA,NA,NA,NA,NA,NA,NA,false
5l8acRcC,379ol9dbtvr9qb2hghaat1q2k68y9b,3y4w8q93l3x6crineoxuxi1pg56vd3,5l8acRcC,2020-0188,2020-06-04,20:29:51,20:52:10,NA,incomplete,140,race,3,1,right,C_F_06.jpg,A_F_16.jpg,C_M_13.jpg,left,881.0799999991432,false,low,NA,NA,NA,NA,NA,NA,NA,false
5l8acRcC,379ol9dbtvr9qb2hghaat1q2k68y9b,3y4w8q93l3x6crineoxuxi1pg56vd3,5l8acRcC,2020-0188,2020-06-04,20:29:51,20:52:10,NA,incomplete,141,race,3,1,left,A_M_13.jpg,A_F_02.jpg,C_M_07.jpg,right,689.8849999997765,false,low,NA,NA,NA,NA,NA,NA,NA,false
5l8acRcC,379ol9dbtvr9qb2hghaat1q2k68y9b,3y4w8q93l3x6crineoxuxi1pg56vd3,5l8acRcC,2020-0188,2020-06-04,20:29:51,20:52:10,NA,incomplete,142,race,3,1,right,C_F_08.jpg,A_F_12.jpg,C_M_13.jpg,right,807.1450000025798,true,low,NA,NA,NA,NA,NA,NA,NA,false
5l8acRcC,379ol9dbtvr9qb2hghaat1q2k68y9b,3y4w8q93l3x6crineoxuxi1pg56vd3,5l8acRcC,2020-0188,2020-06-04,20:29:51,20:52:10,NA,incomplete,143,race,3,1,right,C_M_14.jpg,A_M_01.jpg,C_F_12.jpg,right,875.0749999997206,true,low,NA,NA,NA,NA,NA,NA,NA,false
5l8acRcC,379ol9dbtvr9qb2hghaat1q2k68y9b,3y4w8q93l3x6crineoxuxi1pg56vd3,5l8acRcC,2020-0188,2020-06-04,20:29:51,20:52:10,NA,incomplete,144,race,3,0,right,A_M_15.jpg,C_M_03.jpg,A_F_16.jpg,left,781.3199999984354,false,low,NA,NA,NA,NA,NA,NA,NA,false
5l8acRcC,379ol9dbtvr9qb2hghaat1q2k68y9b,3y4w8q93l3x6crineoxuxi1pg56vd3,5l8acRcC,2020-0188,2020-06-04,20:29:51,20:52:10,NA,incomplete,145,race,3,1,left,A_M_16.jpg,A_F_11.jpg,C_M_05.jpg,left,548.1650000002701,true,low,NA,NA,NA,NA,NA,NA,NA,false
5l8acRcC,379ol9dbtvr9qb2hghaat1q2k68y9b,3y4w8q93l3x6crineoxuxi1pg56vd3,5l8acRcC,2020-0188,2020-06-04,20:29:51,20:52:10,NA,incomplete,146,race,3,1,right,C_F_12.jpg,A_F_10.jpg,C_M_02.jpg,right,427.6549999995623,true,low,NA,NA,NA,NA,NA,NA,NA,false
5l8acRcC,379ol9dbtvr9qb2hghaat1q2k68y9b,3y4w8q93l3x6crineoxuxi1pg56vd3,5l8acRcC,2020-0188,2020-06-04,20:29:51,20:52:10,NA,incomplete,147,race,3,0,right,C_F_08.jpg,A_F_11.jpg,C_M_02.jpg,left,231.61500000045635,false,low,NA,NA,NA,NA,NA,NA,NA,false
5l8acRcC,379ol9dbtvr9qb2hghaat1q2k68y9b,3y4w8q93l3x6crineoxuxi1pg56vd3,5l8acRcC,2020-0188,2020-06-04,20:29:51,20:52:10,NA,incomplete,148,race,3,1,right,A_F_02.jpg,C_F_09.jpg,A_M_15.jpg,right,456.7749999987427,true,low,NA,NA,NA,NA,NA,NA,NA,false
5l8acRcC,379ol9dbtvr9qb2hghaat1q2k68y9b,3y4w8q93l3x6crineoxuxi1pg56vd3,5l8acRcC,2020-0188,2020-06-04,20:29:51,20:52:10,NA,incomplete,149,race,3,1,left,C_M_01.jpg,C_F_07.jpg,A_M_10.jpg,right,443.6649999988731,false,low,NA,NA,NA,NA,NA,NA,NA,false
5l8acRcC,379ol9dbtvr9qb2hghaat1q2k68y9b,3y4w8q93l3x6crineoxuxi1pg56vd3,5l8acRcC,2020-0188,2020-06-04,20:29:51,20:52:10,NA,incomplete,150,race,3,1,left,C_M_12.jpg,C_F_06.jpg,A_M_03.jpg,left,226.4550000000745,true,low,NA,NA,NA,NA,NA,NA,NA,false
5l8acRcC,379ol9dbtvr9qb2hghaat1q2k68y9b,3y4w8q93l3x6crineoxuxi1pg56vd3,5l8acRcC,2020-0188,2020-06-04,20:29:51,20:52:10,NA,incomplete,151,race,3,0,right,C_F_09.jpg,A_F_05.jpg,C_M_16.jpg,left,331.0650000020396,false,low,NA,NA,NA,NA,NA,NA,NA,false
5l8acRcC,379ol9dbtvr9qb2hghaat1q2k68y9b,3y4w8q93l3x6crineoxuxi1pg56vd3,5l8acRcC,2020-0188,2020-06-04,20:29:51,20:52:10,NA,incomplete,152,race,3,1,left,C_F_03.jpg,C_M_11.jpg,A_F_07.jpg,left,542.6799999985378,true,low,NA,NA,NA,NA,NA,NA,NA,false
5l8acRcC,379ol9dbtvr9qb2hghaat1q2k68y9b,3y4w8q93l3x6crineoxuxi1pg56vd3,5l8acRcC,2020-0188,2020-06-04,20:29:51,20:52:10,NA,incomplete,153,race,3,1,left,A_M_08.jpg,A_F_07.jpg,C_M_03.jpg,right,429.43000000016764,false,low,NA,NA,NA,NA,NA,NA,NA,false
5l8acRcC,379ol9dbtvr9qb2hghaat1q2k68y9b,3y4w8q93l3x6crineoxuxi1pg56vd3,5l8acRcC,2020-0188,2020-06-04,20:29:51,20:52:10,NA,incomplete,154,race,3,1,left,C_M_14.jpg,C_F_04.jpg,A_M_07.jpg,left,308.9400000027381,true,low,NA,NA,NA,NA,NA,NA,NA,false
5l8acRcC,379ol9dbtvr9qb2hghaat1q2k68y9b,3y4w8q93l3x6crineoxuxi1pg56vd3,5l8acRcC,2020-0188,2020-06-04,20:29:51,20:52:10,NA,incomplete,155,race,3,1,right,A_M_03.jpg,C_M_06.jpg,A_F_16.jpg,left,491.1849999988917,false,low,NA,NA,NA,NA,NA,NA,NA,false
5l8acRcC,379ol9dbtvr9qb2hghaat1q2k68y9b,3y4w8q93l3x6crineoxuxi1pg56vd3,5l8acRcC,2020-0188,2020-06-04,20:29:51,20:52:10,NA,incomplete,156,race,3,0,right,C_F_08.jpg,A_F_02.jpg,C_M_07.jpg,right,516.4949999998789,true,low,NA,NA,NA,NA,NA,NA,NA,false
5l8acRcC,379ol9dbtvr9qb2hghaat1q2k68y9b,3y4w8q93l3x6crineoxuxi1pg56vd3,5l8acRcC,2020-0188,2020-06-04,20:29:51,20:52:10,NA,incomplete,157,race,3,1,right,C_M_11.jpg,A_M_16.jpg,C_F_09.jpg,left,391.1699999989942,false,low,NA,NA,NA,NA,NA,NA,NA,false
5l8acRcC,379ol9dbtvr9qb2hghaat1q2k68y9b,3y4w8q93l3x6crineoxuxi1pg56vd3,5l8acRcC,2020-0188,2020-06-04,20:29:51,20:52:10,NA,incomplete,158,race,3,1,left,C_M_09.jpg,C_F_07.jpg,A_M_12.jpg,right,384.1150000006892,false,low,NA,NA,NA,NA,NA,NA,NA,false
5l8acRcC,379ol9dbtvr9qb2hghaat1q2k68y9b,3y4w8q93l3x6crineoxuxi1pg56vd3,5l8acRcC,2020-0188,2020-06-04,20:29:51,20:52:10,NA,incomplete,159,race,3,1,right,C_F_05.jpg,A_F_07.jpg,C_M_08.jpg,right,564.3999999992084,true,low,NA,NA,NA,NA,NA,NA,NA,false
5l8acRcC,379ol9dbtvr9qb2hghaat1q2k68y9b,3y4w8q93l3x6crineoxuxi1pg56vd3,5l8acRcC,2020-0188,2020-06-04,20:29:51,20:52:10,NA,incomplete,160,gender,2,1,left,A_M_12.jpg,C_M_08.jpg,A_F_14.jpg,left,551.4849999998696,true,low,NA,NA,NA,NA,NA,NA,NA,false
5l8acRcC,379ol9dbtvr9qb2hghaat1q2k68y9b,3y4w8q93l3x6crineoxuxi1pg56vd3,5l8acRcC,2020-0188,2020-06-04,20:29:51,20:52:10,NA,incomplete,161,gender,2,1,right,C_F_16.jpg,C_M_12.jpg,A_F_04.jpg,right,539.1750000016764,true,low,NA,NA,NA,NA,NA,NA,NA,false
5l8acRcC,379ol9dbtvr9qb2hghaat1q2k68y9b,3y4w8q93l3x6crineoxuxi1pg56vd3,5l8acRcC,2020-0188,2020-06-04,20:29:51,20:52:10,NA,incomplete,162,gender,2,1,right,C_F_11.jpg,C_M_13.jpg,A_F_04.jpg,right,616.1500000017695,true,low,NA,NA,NA,NA,NA,NA,NA,false
5l8acRcC,379ol9dbtvr9qb2hghaat1q2k68y9b,3y4w8q93l3x6crineoxuxi1pg56vd3,5l8acRcC,2020-0188,2020-06-04,20:29:51,20:52:10,NA,incomplete,163,gender,2,1,right,A_M_02.jpg,A_F_16.jpg,C_M_08.jpg,left,527.2350000014994,false,low,NA,NA,NA,NA,NA,NA,NA,false
5l8acRcC,379ol9dbtvr9qb2hghaat1q2k68y9b,3y4w8q93l3x6crineoxuxi1pg56vd3,5l8acRcC,2020-0188,2020-06-04,20:29:51,20:52:10,NA,incomplete,164,gender,2,1,right,C_F_04.jpg,C_M_16.jpg,A_F_09.jpg,right,576.1200000015087,true,low,NA,NA,NA,NA,NA,NA,NA,false
5l8acRcC,379ol9dbtvr9qb2hghaat1q2k68y9b,3y4w8q93l3x6crineoxuxi1pg56vd3,5l8acRcC,2020-0188,2020-06-04,20:29:51,20:52:10,NA,incomplete,165,gender,2,0,right,C_M_05.jpg,C_F_10.jpg,A_M_13.jpg,left,482.46500000101514,false,low,NA,NA,NA,NA,NA,NA,NA,false
5l8acRcC,379ol9dbtvr9qb2hghaat1q2k68y9b,3y4w8q93l3x6crineoxuxi1pg56vd3,5l8acRcC,2020-0188,2020-06-04,20:29:51,20:52:10,NA,incomplete,166,gender,2,1,left,C_M_15.jpg,A_M_01.jpg,C_F_09.jpg,right,686.1749999988824,false,low,NA,NA,NA,NA,NA,NA,NA,false
5l8acRcC,379ol9dbtvr9qb2hghaat1q2k68y9b,3y4w8q93l3x6crineoxuxi1pg56vd3,5l8acRcC,2020-0188,2020-06-04,20:29:51,20:52:10,NA,incomplete,167,gender,2,1,right,A_M_07.jpg,A_F_12.jpg,C_M_01.jpg,left,369.3149999999441,false,low,NA,NA,NA,NA,NA,NA,NA,false
5l8acRcC,379ol9dbtvr9qb2hghaat1q2k68y9b,3y4w8q93l3x6crineoxuxi1pg56vd3,5l8acRcC,2020-0188,2020-06-04,20:29:51,20:52:10,NA,incomplete,168,gender,2,1,left,A_M_03.jpg,C_M_14.jpg,A_F_13.jpg,left,579.6349999981467,true,low,NA,NA,NA,NA,NA,NA,NA,false
5l8acRcC,379ol9dbtvr9qb2hghaat1q2k68y9b,3y4w8q93l3x6crineoxuxi1pg56vd3,5l8acRcC,2020-0188,2020-06-04,20:29:51,20:52:10,NA,incomplete,169,gender,2,1,right,A_F_16.jpg,A_M_06.jpg,C_F_04.jpg,right,475.9349999986589,true,low,NA,NA,NA,NA,NA,NA,NA,false
5l8acRcC,379ol9dbtvr9qb2hghaat1q2k68y9b,3y4w8q93l3x6crineoxuxi1pg56vd3,5l8acRcC,2020-0188,2020-06-04,20:29:51,20:52:10,NA,incomplete,170,gender,2,1,right,A_M_04.jpg,A_F_01.jpg,C_M_02.jpg,left,423.589999998454,false,low,NA,NA,NA,NA,NA,NA,NA,false
5l8acRcC,379ol9dbtvr9qb2hghaat1q2k68y9b,3y4w8q93l3x6crineoxuxi1pg56vd3,5l8acRcC,2020-0188,2020-06-04,20:29:51,20:52:10,NA,incomplete,171,gender,2,0,left,C_M_08.jpg,A_M_14.jpg,C_F_03.jpg,left,488.0699999993667,true,low,NA,NA,NA,NA,NA,NA,NA,false
5l8acRcC,379ol9dbtvr9qb2hghaat1q2k68y9b,3y4w8q93l3x6crineoxuxi1pg56vd3,5l8acRcC,2020-0188,2020-06-04,20:29:51,20:52:10,NA,incomplete,172,gender,2,1,left,C_F_06.jpg,A_F_13.jpg,C_M_03.jpg,right,404.0150000001304,false,low,NA,NA,NA,NA,NA,NA,NA,false
5l8acRcC,379ol9dbtvr9qb2hghaat1q2k68y9b,3y4w8q93l3x6crineoxuxi1pg56vd3,5l8acRcC,2020-0188,2020-06-04,20:29:51,20:52:10,NA,incomplete,173,gender,2,1,right,A_M_07.jpg,A_F_03.jpg,C_M_14.jpg,right,408.77499999990687,true,low,NA,NA,NA,NA,NA,NA,NA,false
5l8acRcC,379ol9dbtvr9qb2hghaat1q2k68y9b,3y4w8q93l3x6crineoxuxi1pg56vd3,5l8acRcC,2020-0188,2020-06-04,20:29:51,20:52:10,NA,incomplete,174,gender,2,1,right,C_F_16.jpg,C_M_14.jpg,A_F_08.jpg,right,440.679999999702,true,low,NA,NA,NA,NA,NA,NA,NA,false
5l8acRcC,379ol9dbtvr9qb2hghaat1q2k68y9b,3y4w8q93l3x6crineoxuxi1pg56vd3,5l8acRcC,2020-0188,2020-06-04,20:29:51,20:52:10,NA,incomplete,175,gender,2,0,right,C_M_08.jpg,C_F_16.jpg,A_M_09.jpg,left,393.72500000172295,false,low,NA,NA,NA,NA,NA,NA,NA,false
5l8acRcC,379ol9dbtvr9qb2hghaat1q2k68y9b,3y4w8q93l3x6crineoxuxi1pg56vd3,5l8acRcC,2020-0188,2020-06-04,20:29:51,20:52:10,NA,incomplete,176,gender,2,1,left,A_M_09.jpg,C_M_13.jpg,A_F_04.jpg,right,625.0849999997299,false,low,NA,NA,NA,NA,NA,NA,NA,false
5l8acRcC,379ol9dbtvr9qb2hghaat1q2k68y9b,3y4w8q93l3x6crineoxuxi1pg56vd3,5l8acRcC,2020-0188,2020-06-04,20:29:51,20:52:10,NA,incomplete,177,gender,2,1,left,A_M_04.jpg,C_M_03.jpg,A_F_10.jpg,left,445.8000000012107,true,low,NA,NA,NA,NA,NA,NA,NA,false
5l8acRcC,379ol9dbtvr9qb2hghaat1q2k68y9b,3y4w8q93l3x6crineoxuxi1pg56vd3,5l8acRcC,2020-0188,2020-06-04,20:29:51,20:52:10,NA,incomplete,178,gender,2,1,right,A_M_11.jpg,A_F_10.jpg,C_M_06.jpg,left,457.2699999988545,false,low,NA,NA,NA,NA,NA,NA,NA,false
5l8acRcC,379ol9dbtvr9qb2hghaat1q2k68y9b,3y4w8q93l3x6crineoxuxi1pg56vd3,5l8acRcC,2020-0188,2020-06-04,20:29:51,20:52:10,NA,incomplete,179,gender,2,1,right,C_M_03.jpg,C_F_04.jpg,A_M_12.jpg,left,562.624999998603,false,low,NA,NA,NA,NA,NA,NA,NA,false
5l8acRcC,379ol9dbtvr9qb2hghaat1q2k68y9b,3y4w8q93l3x6crineoxuxi1pg56vd3,5l8acRcC,2020-0188,2020-06-04,20:29:51,20:52:10,NA,incomplete,180,race,3,1,left,C_M_03.jpg,C_F_04.jpg,A_M_10.jpg,right,399.5150000010617,false,low,NA,NA,NA,NA,NA,NA,NA,false
5l8acRcC,379ol9dbtvr9qb2hghaat1q2k68y9b,3y4w8q93l3x6crineoxuxi1pg56vd3,5l8acRcC,2020-0188,2020-06-04,20:29:51,20:52:10,NA,incomplete,181,race,3,0,right,A_M_16.jpg,C_M_03.jpg,A_F_05.jpg,right,429.55000000074506,true,low,NA,NA,NA,NA,NA,NA,NA,false
5l8acRcC,379ol9dbtvr9qb2hghaat1q2k68y9b,3y4w8q93l3x6crineoxuxi1pg56vd3,5l8acRcC,2020-0188,2020-06-04,20:29:51,20:52:10,NA,incomplete,182,race,3,1,left,C_M_15.jpg,C_F_04.jpg,A_M_09.jpg,left,259.36499999812804,true,low,NA,NA,NA,NA,NA,NA,NA,false
5l8acRcC,379ol9dbtvr9qb2hghaat1q2k68y9b,3y4w8q93l3x6crineoxuxi1pg56vd3,5l8acRcC,2020-0188,2020-06-04,20:29:51,20:52:10,NA,incomplete,183,race,3,0,right,C_F_01.jpg,A_F_08.jpg,C_M_14.jpg,left,407.11500000185333,false,low,NA,NA,NA,NA,NA,NA,NA,false
5l8acRcC,379ol9dbtvr9qb2hghaat1q2k68y9b,3y4w8q93l3x6crineoxuxi1pg56vd3,5l8acRcC,2020-0188,2020-06-04,20:29:51,20:52:10,NA,incomplete,184,race,3,1,left,A_M_13.jpg,A_F_03.jpg,C_M_12.jpg,left,451.1549999988638,true,low,NA,NA,NA,NA,NA,NA,NA,false
5l8acRcC,379ol9dbtvr9qb2hghaat1q2k68y9b,3y4w8q93l3x6crineoxuxi1pg56vd3,5l8acRcC,2020-0188,2020-06-04,20:29:51,20:52:10,NA,incomplete,185,race,3,1,left,A_M_15.jpg,A_F_02.jpg,C_M_16.jpg,left,406.06499999924563,true,low,NA,NA,NA,NA,NA,NA,NA,false
5l8acRcC,379ol9dbtvr9qb2hghaat1q2k68y9b,3y4w8q93l3x6crineoxuxi1pg56vd3,5l8acRcC,2020-0188,2020-06-04,20:29:51,20:52:10,NA,incomplete,186,race,3,0,left,C_F_04.jpg,C_M_08.jpg,A_F_01.jpg,left,385.8549999969546,true,low,NA,NA,NA,NA,NA,NA,NA,false
5l8acRcC,379ol9dbtvr9qb2hghaat1q2k68y9b,3y4w8q93l3x6crineoxuxi1pg56vd3,5l8acRcC,2020-0188,2020-06-04,20:29:51,20:52:10,NA,incomplete,187,race,3,1,right,A_M_03.jpg,C_M_10.jpg,A_F_04.jpg,right,451.9400000027381,true,low,NA,NA,NA,NA,NA,NA,NA,false
5l8acRcC,379ol9dbtvr9qb2hghaat1q2k68y9b,3y4w8q93l3x6crineoxuxi1pg56vd3,5l8acRcC,2020-0188,2020-06-04,20:29:51,20:52:10,NA,incomplete,188,race,3,1,right,C_F_04.jpg,A_F_05.jpg,C_M_13.jpg,right,505.29500000271946,true,low,NA,NA,NA,NA,NA,NA,NA,false
5l8acRcC,379ol9dbtvr9qb2hghaat1q2k68y9b,3y4w8q93l3x6crineoxuxi1pg56vd3,5l8acRcC,2020-0188,2020-06-04,20:29:51,20:52:10,NA,incomplete,189,race,3,1,left,C_F_16.jpg,C_M_05.jpg,A_F_04.jpg,right,431.3849999997765,false,low,NA,NA,NA,NA,NA,NA,NA,false
5l8acRcC,379ol9dbtvr9qb2hghaat1q2k68y9b,3y4w8q93l3x6crineoxuxi1pg56vd3,5l8acRcC,2020-0188,2020-06-04,20:29:51,20:52:10,NA,incomplete,190,race,3,1,right,C_M_10.jpg,A_M_04.jpg,C_F_07.jpg,right,444.9499999973923,true,low,NA,NA,NA,NA,NA,NA,NA,false
5l8acRcC,379ol9dbtvr9qb2hghaat1q2k68y9b,3y4w8q93l3x6crineoxuxi1pg56vd3,5l8acRcC,2020-0188,2020-06-04,20:29:51,20:52:10,NA,incomplete,191,race,3,0,left,A_M_11.jpg,A_F_03.jpg,C_M_13.jpg,right,382.14000000152737,false,low,NA,NA,NA,NA,NA,NA,NA,false
5l8acRcC,379ol9dbtvr9qb2hghaat1q2k68y9b,3y4w8q93l3x6crineoxuxi1pg56vd3,5l8acRcC,2020-0188,2020-06-04,20:29:51,20:52:10,NA,incomplete,192,race,3,1,right,A_M_09.jpg,C_M_01.jpg,A_F_06.jpg,left,226.6699999999255,false,low,NA,NA,NA,NA,NA,NA,NA,false
5l8acRcC,379ol9dbtvr9qb2hghaat1q2k68y9b,3y4w8q93l3x6crineoxuxi1pg56vd3,5l8acRcC,2020-0188,2020-06-04,20:29:51,20:52:10,NA,incomplete,193,race,3,0,right,C_M_03.jpg,A_M_14.jpg,C_F_13.jpg,right,263.9149999995716,true,low,NA,NA,NA,NA,NA,NA,NA,false
5l8acRcC,379ol9dbtvr9qb2hghaat1q2k68y9b,3y4w8q93l3x6crineoxuxi1pg56vd3,5l8acRcC,2020-0188,2020-06-04,20:29:51,20:52:10,NA,incomplete,194,race,3,1,right,A_F_02.jpg,C_F_16.jpg,A_M_14.jpg,right,54.17499999748543,true,low,NA,NA,NA,NA,NA,NA,NA,false
5l8acRcC,379ol9dbtvr9qb2hghaat1q2k68y9b,3y4w8q93l3x6crineoxuxi1pg56vd3,5l8acRcC,2020-0188,2020-06-04,20:29:51,20:52:10,NA,incomplete,195,race,3,0,right,A_F_03.jpg,C_F_08.jpg,A_M_12.jpg,left,190.15000000200234,false,low,NA,NA,NA,NA,NA,NA,NA,false
5l8acRcC,379ol9dbtvr9qb2hghaat1q2k68y9b,3y4w8q93l3x6crineoxuxi1pg56vd3,5l8acRcC,2020-0188,2020-06-04,20:29:51,20:52:10,NA,incomplete,196,race,3,1,left,A_F_12.jpg,A_M_16.jpg,C_F_02.jpg,right,297.78000000095926,false,low,NA,NA,NA,NA,NA,NA,NA,false
5l8acRcC,379ol9dbtvr9qb2hghaat1q2k68y9b,3y4w8q93l3x6crineoxuxi1pg56vd3,5l8acRcC,2020-0188,2020-06-04,20:29:51,20:52:10,NA,incomplete,197,race,3,0,left,A_F_13.jpg,A_M_14.jpg,C_F_16.jpg,left,195.45999999903142,true,low,NA,NA,NA,NA,NA,NA,NA,false
5l8acRcC,379ol9dbtvr9qb2hghaat1q2k68y9b,3y4w8q93l3x6crineoxuxi1pg56vd3,5l8acRcC,2020-0188,2020-06-04,20:29:51,20:52:10,NA,incomplete,198,race,3,1,left,A_F_08.jpg,A_M_14.jpg,C_F_03.jpg,left,325.6550000004936,true,low,NA,NA,NA,NA,NA,NA,NA,false
5l8acRcC,379ol9dbtvr9qb2hghaat1q2k68y9b,3y4w8q93l3x6crineoxuxi1pg56vd3,5l8acRcC,2020-0188,2020-06-04,20:29:51,20:52:10,NA,incomplete,199,race,3,1,left,C_F_04.jpg,C_M_14.jpg,A_F_06.jpg,left,452.87000000081025,true,low,NA,NA,NA,NA,NA,NA,NA,false
5l8acRcC,379ol9dbtvr9qb2hghaat1q2k68y9b,3y4w8q93l3x6crineoxuxi1pg56vd3,5l8acRcC,2020-0188,2020-06-04,20:29:51,20:52:10,NA,incomplete,200,gender,2,1,left,C_M_03.jpg,A_M_02.jpg,C_F_04.jpg,left,638.8599999989383,true,low,NA,NA,NA,NA,NA,NA,NA,false
5l8acRcC,379ol9dbtvr9qb2hghaat1q2k68y9b,3y4w8q93l3x6crineoxuxi1pg56vd3,5l8acRcC,2020-0188,2020-06-04,20:29:51,20:52:10,NA,incomplete,201,gender,2,1,left,C_F_03.jpg,A_F_13.jpg,C_M_04.jpg,left,521.2249999968335,true,low,NA,NA,NA,NA,NA,NA,NA,false
5l8acRcC,379ol9dbtvr9qb2hghaat1q2k68y9b,3y4w8q93l3x6crineoxuxi1pg56vd3,5l8acRcC,2020-0188,2020-06-04,20:29:51,20:52:10,NA,incomplete,202,gender,2,0,right,A_M_11.jpg,A_F_04.jpg,C_M_13.jpg,right,526.644999998156,true,low,NA,NA,NA,NA,NA,NA,NA,false
5l8acRcC,379ol9dbtvr9qb2hghaat1q2k68y9b,3y4w8q93l3x6crineoxuxi1pg56vd3,5l8acRcC,2020-0188,2020-06-04,20:29:51,20:52:10,NA,incomplete,203,gender,2,1,right,C_F_03.jpg,C_M_05.jpg,A_F_02.jpg,right,507.0600000000559,true,low,NA,NA,NA,NA,NA,NA,NA,false
5l8acRcC,379ol9dbtvr9qb2hghaat1q2k68y9b,3y4w8q93l3x6crineoxuxi1pg56vd3,5l8acRcC,2020-0188,2020-06-04,20:29:51,20:52:10,NA,incomplete,204,gender,2,1,right,A_F_09.jpg,A_M_08.jpg,C_F_04.jpg,left,460.94000000087544,false,low,NA,NA,NA,NA,NA,NA,NA,false
5l8acRcC,379ol9dbtvr9qb2hghaat1q2k68y9b,3y4w8q93l3x6crineoxuxi1pg56vd3,5l8acRcC,2020-0188,2020-06-04,20:29:51,20:52:10,NA,incomplete,205,gender,2,1,right,A_M_05.jpg,A_F_10.jpg,C_M_13.jpg,right,632.819999998901,true,low,NA,NA,NA,NA,NA,NA,NA,false
5l8acRcC,379ol9dbtvr9qb2hghaat1q2k68y9b,3y4w8q93l3x6crineoxuxi1pg56vd3,5l8acRcC,2020-0188,2020-06-04,20:29:51,20:52:10,NA,incomplete,206,gender,2,0,right,C_M_09.jpg,C_F_07.jpg,A_M_02.jpg,left,835.8750000006985,false,low,NA,NA,NA,NA,NA,NA,NA,false
5l8acRcC,379ol9dbtvr9qb2hghaat1q2k68y9b,3y4w8q93l3x6crineoxuxi1pg56vd3,5l8acRcC,2020-0188,2020-06-04,20:29:51,20:52:10,NA,incomplete,207,gender,2,1,right,C_F_09.jpg,C_M_07.jpg,A_F_14.jpg,left,331.1200000026729,false,low,NA,NA,NA,NA,NA,NA,NA,false
5l8acRcC,379ol9dbtvr9qb2hghaat1q2k68y9b,3y4w8q93l3x6crineoxuxi1pg56vd3,5l8acRcC,2020-0188,2020-06-04,20:29:51,20:52:10,NA,incomplete,208,gender,2,1,right,C_M_11.jpg,C_F_08.jpg,A_M_06.jpg,right,525.8449999999721,true,low,NA,NA,NA,NA,NA,NA,NA,false
5l8acRcC,379ol9dbtvr9qb2hghaat1q2k68y9b,3y4w8q93l3x6crineoxuxi1pg56vd3,5l8acRcC,2020-0188,2020-06-04,20:29:51,20:52:10,NA,incomplete,209,gender,2,1,left,C_F_09.jpg,A_F_16.jpg,C_M_13.jpg,right,601.6450000023469,false,low,NA,NA,NA,NA,NA,NA,NA,false
5l8acRcC,379ol9dbtvr9qb2hghaat1q2k68y9b,3y4w8q93l3x6crineoxuxi1pg56vd3,5l8acRcC,2020-0188,2020-06-04,20:29:51,20:52:10,NA,incomplete,210,gender,2,1,right,A_F_09.jpg,A_M_08.jpg,C_F_14.jpg,left,563.5299999993294,false,low,NA,NA,NA,NA,NA,NA,NA,false
5l8acRcC,379ol9dbtvr9qb2hghaat1q2k68y9b,3y4w8q93l3x6crineoxuxi1pg56vd3,5l8acRcC,2020-0188,2020-06-04,20:29:51,20:52:10,NA,incomplete,211,gender,2,1,left,C_F_07.jpg,A_F_09.jpg,C_M_08.jpg,right,525.0449999985285,false,low,NA,NA,NA,NA,NA,NA,NA,false
5l8acRcC,379ol9dbtvr9qb2hghaat1q2k68y9b,3y4w8q93l3x6crineoxuxi1pg56vd3,5l8acRcC,2020-0188,2020-06-04,20:29:51,20:52:10,NA,incomplete,212,gender,2,1,left,C_F_14.jpg,A_F_06.jpg,C_M_15.jpg,right,640.1699999987613,false,low,NA,NA,NA,NA,NA,NA,NA,false
5l8acRcC,379ol9dbtvr9qb2hghaat1q2k68y9b,3y4w8q93l3x6crineoxuxi1pg56vd3,5l8acRcC,2020-0188,2020-06-04,20:29:51,20:52:10,NA,incomplete,213,gender,2,1,left,C_M_13.jpg,A_M_10.jpg,C_F_15.jpg,left,73.7349999982398,true,low,NA,NA,NA,NA,NA,NA,NA,false
5l8acRcC,379ol9dbtvr9qb2hghaat1q2k68y9b,3y4w8q93l3x6crineoxuxi1pg56vd3,5l8acRcC,2020-0188,2020-06-04,20:29:51,20:52:10,NA,incomplete,214,gender,2,1,right,C_M_11.jpg,C_F_03.jpg,A_M_16.jpg,left,397.0750000006519,false,low,NA,NA,NA,NA,NA,NA,NA,false
5l8acRcC,379ol9dbtvr9qb2hghaat1q2k68y9b,3y4w8q93l3x6crineoxuxi1pg56vd3,5l8acRcC,2020-0188,2020-06-04,20:29:51,20:52:10,NA,incomplete,215,gender,2,0,right,A_M_13.jpg,A_F_15.jpg,C_M_07.jpg,left,349.875,false,low,NA,NA,NA,NA,NA,NA,NA,false
5l8acRcC,379ol9dbtvr9qb2hghaat1q2k68y9b,3y4w8q93l3x6crineoxuxi1pg56vd3,5l8acRcC,2020-0188,2020-06-04,20:29:51,20:52:10,NA,incomplete,216,gender,2,1,right,C_M_05.jpg,C_F_14.jpg,A_M_08.jpg,right,424.19499999959953,true,low,NA,NA,NA,NA,NA,NA,NA,false
5l8acRcC,379ol9dbtvr9qb2hghaat1q2k68y9b,3y4w8q93l3x6crineoxuxi1pg56vd3,5l8acRcC,2020-0188,2020-06-04,20:29:51,20:52:10,NA,incomplete,217,gender,2,1,left,A_F_10.jpg,C_F_03.jpg,A_M_08.jpg,left,225.7949999985285,true,low,NA,NA,NA,NA,NA,NA,NA,false
5l8acRcC,379ol9dbtvr9qb2hghaat1q2k68y9b,3y4w8q93l3x6crineoxuxi1pg56vd3,5l8acRcC,2020-0188,2020-06-04,20:29:51,20:52:10,NA,incomplete,218,gender,2,1,right,A_M_16.jpg,A_F_05.jpg,C_M_10.jpg,left,593.605000001844,false,low,NA,NA,NA,NA,NA,NA,NA,false
5l8acRcC,379ol9dbtvr9qb2hghaat1q2k68y9b,3y4w8q93l3x6crineoxuxi1pg56vd3,5l8acRcC,2020-0188,2020-06-04,20:29:51,20:52:10,NA,incomplete,219,gender,2,1,left,A_M_01.jpg,C_M_09.jpg,A_F_07.jpg,right,212.69999999995343,false,low,NA,NA,NA,NA,NA,NA,NA,false
5l8acRcC,379ol9dbtvr9qb2hghaat1q2k68y9b,3y4w8q93l3x6crineoxuxi1pg56vd3,5l8acRcC,2020-0188,2020-06-04,20:29:51,20:52:10,NA,incomplete,220,race,3,0,right,A_F_11.jpg,C_F_04.jpg,A_M_05.jpg,right,203.72499999939464,true,low,NA,NA,NA,NA,NA,NA,NA,false
5l8acRcC,379ol9dbtvr9qb2hghaat1q2k68y9b,3y4w8q93l3x6crineoxuxi1pg56vd3,5l8acRcC,2020-0188,2020-06-04,20:29:51,20:52:10,NA,incomplete,221,race,3,1,right,C_F_13.jpg,A_F_11.jpg,C_M_15.jpg,right,222.32500000251457,true,low,NA,NA,NA,NA,NA,NA,NA,false
5l8acRcC,379ol9dbtvr9qb2hghaat1q2k68y9b,3y4w8q93l3x6crineoxuxi1pg56vd3,5l8acRcC,2020-0188,2020-06-04,20:29:51,20:52:10,NA,incomplete,222,race,3,1,left,A_M_06.jpg,A_F_15.jpg,C_M_11.jpg,right,263.07500000251457,false,low,NA,NA,NA,NA,NA,NA,NA,false
5l8acRcC,379ol9dbtvr9qb2hghaat1q2k68y9b,3y4w8q93l3x6crineoxuxi1pg56vd3,5l8acRcC,2020-0188,2020-06-04,20:29:51,20:52:10,NA,incomplete,223,race,3,1,left,A_F_15.jpg,A_M_10.jpg,C_F_11.jpg,left,275.93999999947846,true,low,NA,NA,NA,NA,NA,NA,NA,false
5l8acRcC,379ol9dbtvr9qb2hghaat1q2k68y9b,3y4w8q93l3x6crineoxuxi1pg56vd3,5l8acRcC,2020-0188,2020-06-04,20:29:51,20:52:10,NA,incomplete,224,race,3,1,right,C_F_11.jpg,A_F_16.jpg,C_M_08.jpg,left,375.07499999995343,false,low,NA,NA,NA,NA,NA,NA,NA,false
5l8acRcC,379ol9dbtvr9qb2hghaat1q2k68y9b,3y4w8q93l3x6crineoxuxi1pg56vd3,5l8acRcC,2020-0188,2020-06-04,20:29:51,20:52:10,NA,incomplete,225,race,3,1,right,C_F_01.jpg,A_F_03.jpg,C_M_08.jpg,left,209.0250000001397,false,low,NA,NA,NA,NA,NA,NA,NA,false
5l8acRcC,379ol9dbtvr9qb2hghaat1q2k68y9b,3y4w8q93l3x6crineoxuxi1pg56vd3,5l8acRcC,2020-0188,2020-06-04,20:29:51,20:52:10,NA,incomplete,226,race,3,0,left,C_F_14.jpg,C_M_09.jpg,A_F_12.jpg,left,61.06999999959953,true,low,NA,NA,NA,NA,NA,NA,NA,false
5l8acRcC,379ol9dbtvr9qb2hghaat1q2k68y9b,3y4w8q93l3x6crineoxuxi1pg56vd3,5l8acRcC,2020-0188,2020-06-04,20:29:51,20:52:10,NA,incomplete,227,race,3,1,left,A_F_15.jpg,A_M_01.jpg,C_F_06.jpg,right,304.1799999990035,false,low,NA,NA,NA,NA,NA,NA,NA,false
5l8acRcC,379ol9dbtvr9qb2hghaat1q2k68y9b,3y4w8q93l3x6crineoxuxi1pg56vd3,5l8acRcC,2020-0188,2020-06-04,20:29:51,20:52:10,NA,incomplete,228,race,3,1,left,C_F_12.jpg,C_M_03.jpg,A_F_15.jpg,right,470.48499999800697,false,low,NA,NA,NA,NA,NA,NA,NA,false
5l8acRcC,379ol9dbtvr9qb2hghaat1q2k68y9b,3y4w8q93l3x6crineoxuxi1pg56vd3,5l8acRcC,2020-0188,2020-06-04,20:29:51,20:52:10,NA,incomplete,229,race,3,1,right,A_F_02.jpg,C_F_03.jpg,A_M_05.jpg,left,706.1250000004657,false,low,NA,NA,NA,NA,NA,NA,NA,false
5l8acRcC,379ol9dbtvr9qb2hghaat1q2k68y9b,3y4w8q93l3x6crineoxuxi1pg56vd3,5l8acRcC,2020-0188,2020-06-04,20:29:51,20:52:10,NA,incomplete,230,race,3,1,right,A_M_07.jpg,C_M_02.jpg,A_F_11.jpg,left,601.3999999994412,false,low,NA,NA,NA,NA,NA,NA,NA,false
5l8acRcC,379ol9dbtvr9qb2hghaat1q2k68y9b,3y4w8q93l3x6crineoxuxi1pg56vd3,5l8acRcC,2020-0188,2020-06-04,20:29:51,20:52:10,NA,incomplete,231,race,3,1,right,C_F_05.jpg,A_F_14.jpg,C_M_08.jpg,left,732.2700000004843,false,low,NA,NA,NA,NA,NA,NA,NA,false
5l8acRcC,379ol9dbtvr9qb2hghaat1q2k68y9b,3y4w8q93l3x6crineoxuxi1pg56vd3,5l8acRcC,2020-0188,2020-06-04,20:29:51,20:52:10,NA,incomplete,232,race,3,1,left,A_F_03.jpg,A_M_08.jpg,C_F_09.jpg,left,585.4799999978859,true,low,NA,NA,NA,NA,NA,NA,NA,false
5l8acRcC,379ol9dbtvr9qb2hghaat1q2k68y9b,3y4w8q93l3x6crineoxuxi1pg56vd3,5l8acRcC,2020-0188,2020-06-04,20:29:51,20:52:10,NA,incomplete,233,race,3,0,left,A_M_09.jpg,A_F_08.jpg,C_M_11.jpg,right,524.6499999992084,false,low,NA,NA,NA,NA,NA,NA,NA,false
5l8acRcC,379ol9dbtvr9qb2hghaat1q2k68y9b,3y4w8q93l3x6crineoxuxi1pg56vd3,5l8acRcC,2020-0188,2020-06-04,20:29:51,20:52:10,NA,incomplete,234,race,3,1,right,C_F_02.jpg,A_F_07.jpg,C_M_09.jpg,right,636.6950000009965,true,low,NA,NA,NA,NA,NA,NA,NA,false
5l8acRcC,379ol9dbtvr9qb2hghaat1q2k68y9b,3y4w8q93l3x6crineoxuxi1pg56vd3,5l8acRcC,2020-0188,2020-06-04,20:29:51,20:52:10,NA,incomplete,235,race,3,0,right,C_F_01.jpg,A_F_03.jpg,C_M_08.jpg,right,504.7200000009034,true,low,NA,NA,NA,NA,NA,NA,NA,false
5l8acRcC,379ol9dbtvr9qb2hghaat1q2k68y9b,3y4w8q93l3x6crineoxuxi1pg56vd3,5l8acRcC,2020-0188,2020-06-04,20:29:51,20:52:10,NA,incomplete,236,race,3,1,left,A_M_12.jpg,A_F_08.jpg,C_M_06.jpg,right,558.1149999997579,false,low,NA,NA,NA,NA,NA,NA,NA,false
5l8acRcC,379ol9dbtvr9qb2hghaat1q2k68y9b,3y4w8q93l3x6crineoxuxi1pg56vd3,5l8acRcC,2020-0188,2020-06-04,20:29:51,20:52:10,NA,incomplete,237,race,3,1,left,A_F_05.jpg,A_M_15.jpg,C_F_04.jpg,left,486.010000000475,true,low,NA,NA,NA,NA,NA,NA,NA,false
5l8acRcC,379ol9dbtvr9qb2hghaat1q2k68y9b,3y4w8q93l3x6crineoxuxi1pg56vd3,5l8acRcC,2020-0188,2020-06-04,20:29:51,20:52:10,NA,incomplete,238,race,3,1,left,C_F_16.jpg,C_M_01.jpg,A_F_09.jpg,left,548.4099999994505,true,low,NA,NA,NA,NA,NA,NA,NA,false
5l8acRcC,379ol9dbtvr9qb2hghaat1q2k68y9b,3y4w8q93l3x6crineoxuxi1pg56vd3,5l8acRcC,2020-0188,2020-06-04,20:29:51,20:52:10,NA,incomplete,239,race,3,1,right,A_M_11.jpg,C_M_15.jpg,A_F_12.jpg,right,569.1100000003353,true,low,NA,NA,NA,NA,NA,NA,NA,false
5l8acRcC,379ol9dbtvr9qb2hghaat1q2k68y9b,3y4w8q93l3x6crineoxuxi1pg56vd3,5l8acRcC,2020-0188,2020-06-04,20:29:51,20:52:10,NA,NA,instruction example,color,NA,NA,NA,Red_Plus_Chess_1.jpg,Red_Circle_Stripes_2.jpg,Purple_Triangle_Grid_1.jpg,NA,NA,NA,NA,NA,NA,NA,NA,NA,NA,NA,undefined
5l8acRcC,379ol9dbtvr9qb2hghaat1q2k68y9b,3y4w8q93l3x6crineoxuxi1pg56vd3,5l8acRcC,2020-0188,2020-06-04,20:29:51,20:52:10,NA,NA,instruction example,color,NA,NA,NA,Blue_Plus_Stripes_4.jpg,Green_Star_Grid_4.jpg,Blue_Triangle_Dots_2.jpg,NA,NA,NA,NA,NA,NA,NA,NA,NA,NA,NA,undefined
5l8acRcC,379ol9dbtvr9qb2hghaat1q2k68y9b,3y4w8q93l3x6crineoxuxi1pg56vd3,5l8acRcC,2020-0188,2020-06-04,20:29:51,20:52:10,NA,NA,instruction example,color,NA,NA,NA,A_F_04.jpg,C_F_16.jpg,A_M_13.jpg,NA,NA,NA,NA,NA,NA,NA,NA,NA,NA,NA,undefined
5l8acRcC,379ol9dbtvr9qb2hghaat1q2k68y9b,3y4w8q93l3x6crineoxuxi1pg56vd3,5l8acRcC,2020-0188,2020-06-04,20:29:51,20:52:10,NA,NA,instruction example,color,NA,NA,NA,C_F_04.jpg,C_M_03.jpg,A_F_06.jpg,NA,NA,NA,NA,NA,NA,NA,NA,NA,NA,NA,undefined
5l8acRcC,379ol9dbtvr9qb2hghaat1q2k68y9b,3y4w8q93l3x6crineoxuxi1pg56vd3,5l8acRcC,2020-0188,2020-06-04,20:29:51,20:52:10,1318344.0649999976,1341815.2200000004,NA,NA,NA,NA,NA,NA,NA,NA,NA,NA,NA,NA,34,White/Caucasian,Female,white,no,yes,no,undefined
