workerId,hitId,assignmentId,subject,studyid,exp_date,exp_start,exp_end,time_start,time_end,trial,type,sequence,reward_validity,answer,image_top,image_left,image_right,response,response_time,response_acc,volatility,age,race,gender,ethnicity,color,vision,neuro,practice
9uBW4UOw,3kqc8jmjhf51pencp85cgosduim3h1,3y5140z9d1tafi1dkqp6inskmiwipi,9uBW4UOw,2020-0188,2020-06-04,09:36:34,10:00:17,NA,incomplete,0,number,0,1,left,Purple_Circle_Chess_2.jpg,Red_Plus_Dots_2.jpg,Blue_Circle_Grid_4.jpg,right,520.2900000003865,false,NA,NA,NA,NA,NA,NA,NA,NA,true
9uBW4UOw,3kqc8jmjhf51pencp85cgosduim3h1,3y5140z9d1tafi1dkqp6inskmiwipi,9uBW4UOw,2020-0188,2020-06-04,09:36:34,10:00:17,NA,incomplete,1,number,0,1,right,Purple_Triangle_Dots_4.jpg,Blue_Triangle_Chess_3.jpg,Green_Circle_Grid_4.jpg,left,166.40999999979977,false,NA,NA,NA,NA,NA,NA,NA,NA,true
9uBW4UOw,3kqc8jmjhf51pencp85cgosduim3h1,3y5140z9d1tafi1dkqp6inskmiwipi,9uBW4UOw,2020-0188,2020-06-04,09:36:34,10:00:17,NA,incomplete,2,number,0,1,left,Green_Star_Stripes_2.jpg,Blue_Plus_Dots_2.jpg,Purple_Star_Grid_3.jpg,left,768.1300000003539,true,NA,NA,NA,NA,NA,NA,NA,NA,true
9uBW4UOw,3kqc8jmjhf51pencp85cgosduim3h1,3y5140z9d1tafi1dkqp6inskmiwipi,9uBW4UOw,2020-0188,2020-06-04,09:36:34,10:00:17,NA,incomplete,3,number,0,1,left,Purple_Circle_Dots_3.jpg,Blue_Star_Grid_3.jpg,Green_Circle_Stripes_4.jpg,right,497.5749999994878,false,NA,NA,NA,NA,NA,NA,NA,NA,true
9uBW4UOw,3kqc8jmjhf51pencp85cgosduim3h1,3y5140z9d1tafi1dkqp6inskmiwipi,9uBW4UOw,2020-0188,2020-06-04,09:36:34,10:00:17,NA,incomplete,4,number,0,1,right,Blue_Star_Dots_1.jpg,Green_Star_Stripes_2.jpg,Purple_Plus_Chess_1.jpg,right,558.979999999865,true,NA,NA,NA,NA,NA,NA,NA,NA,true
9uBW4UOw,3kqc8jmjhf51pencp85cgosduim3h1,3y5140z9d1tafi1dkqp6inskmiwipi,9uBW4UOw,2020-0188,2020-06-04,09:36:34,10:00:17,NA,incomplete,5,number,0,1,left,Green_Triangle_Stripes_1.jpg,Red_Circle_Grid_1.jpg,Blue_Triangle_Dots_4.jpg,left,650.0749999994878,true,NA,NA,NA,NA,NA,NA,NA,NA,true
9uBW4UOw,3kqc8jmjhf51pencp85cgosduim3h1,3y5140z9d1tafi1dkqp6inskmiwipi,9uBW4UOw,2020-0188,2020-06-04,09:36:34,10:00:17,NA,incomplete,6,number,0,1,left,Green_Star_Stripes_2.jpg,Purple_Circle_Dots_2.jpg,Blue_Star_Grid_4.jpg,right,684.5499999999302,false,NA,NA,NA,NA,NA,NA,NA,NA,true
9uBW4UOw,3kqc8jmjhf51pencp85cgosduim3h1,3y5140z9d1tafi1dkqp6inskmiwipi,9uBW4UOw,2020-0188,2020-06-04,09:36:34,10:00:17,NA,incomplete,7,number,0,1,left,Green_Plus_Stripes_3.jpg,Red_Circle_Dots_3.jpg,Blue_Plus_Grid_4.jpg,left,792.510000001057,true,NA,NA,NA,NA,NA,NA,NA,NA,true
9uBW4UOw,3kqc8jmjhf51pencp85cgosduim3h1,3y5140z9d1tafi1dkqp6inskmiwipi,9uBW4UOw,2020-0188,2020-06-04,09:36:34,10:00:17,NA,incomplete,8,number,0,1,right,Green_Star_Grid_2.jpg,Red_Star_Dots_4.jpg,Blue_Plus_Stripes_2.jpg,right,757.6750000007451,true,NA,NA,NA,NA,NA,NA,NA,NA,true
9uBW4UOw,3kqc8jmjhf51pencp85cgosduim3h1,3y5140z9d1tafi1dkqp6inskmiwipi,9uBW4UOw,2020-0188,2020-06-04,09:36:34,10:00:17,NA,incomplete,9,number,0,0,left,Green_Plus_Chess_1.jpg,Purple_Circle_Stripes_1.jpg,Red_Plus_Grid_2.jpg,left,569.3900000004796,true,NA,NA,NA,NA,NA,NA,NA,NA,true
9uBW4UOw,3kqc8jmjhf51pencp85cgosduim3h1,3y5140z9d1tafi1dkqp6inskmiwipi,9uBW4UOw,2020-0188,2020-06-04,09:36:34,10:00:17,NA,incomplete,10,number,0,1,right,Blue_Plus_Dots_3.jpg,Purple_Plus_Stripes_2.jpg,Green_Triangle_Grid_3.jpg,right,1006.6699999987613,true,NA,NA,NA,NA,NA,NA,NA,NA,true
9uBW4UOw,3kqc8jmjhf51pencp85cgosduim3h1,3y5140z9d1tafi1dkqp6inskmiwipi,9uBW4UOw,2020-0188,2020-06-04,09:36:34,10:00:17,NA,incomplete,11,number,0,1,left,Green_Star_Dots_1.jpg,Purple_Circle_Grid_1.jpg,Red_Star_Stripes_4.jpg,left,1226.8299999996088,true,NA,NA,NA,NA,NA,NA,NA,NA,true
9uBW4UOw,3kqc8jmjhf51pencp85cgosduim3h1,3y5140z9d1tafi1dkqp6inskmiwipi,9uBW4UOw,2020-0188,2020-06-04,09:36:34,10:00:17,NA,incomplete,12,number,0,1,left,Purple_Star_Stripes_1.jpg,Red_Triangle_Dots_1.jpg,Green_Star_Chess_4.jpg,left,594.4300000009825,true,NA,NA,NA,NA,NA,NA,NA,NA,true
9uBW4UOw,3kqc8jmjhf51pencp85cgosduim3h1,3y5140z9d1tafi1dkqp6inskmiwipi,9uBW4UOw,2020-0188,2020-06-04,09:36:34,10:00:17,NA,incomplete,13,number,0,1,left,Red_Triangle_Stripes_3.jpg,Blue_Plus_Dots_3.jpg,Purple_Triangle_Chess_4.jpg,left,871.2150000010151,true,NA,NA,NA,NA,NA,NA,NA,NA,true
9uBW4UOw,3kqc8jmjhf51pencp85cgosduim3h1,3y5140z9d1tafi1dkqp6inskmiwipi,9uBW4UOw,2020-0188,2020-06-04,09:36:34,10:00:17,NA,incomplete,14,number,0,1,left,Purple_Circle_Stripes_1.jpg,Green_Star_Grid_1.jpg,Blue_Circle_Chess_3.jpg,left,750.9900000004563,true,NA,NA,NA,NA,NA,NA,NA,NA,true
9uBW4UOw,3kqc8jmjhf51pencp85cgosduim3h1,3y5140z9d1tafi1dkqp6inskmiwipi,9uBW4UOw,2020-0188,2020-06-04,09:36:34,10:00:17,NA,incomplete,15,number,0,1,right,Red_Star_Stripes_4.jpg,Blue_Star_Dots_2.jpg,Purple_Triangle_Chess_4.jpg,right,1045.5650000004098,true,NA,NA,NA,NA,NA,NA,NA,NA,true
9uBW4UOw,3kqc8jmjhf51pencp85cgosduim3h1,3y5140z9d1tafi1dkqp6inskmiwipi,9uBW4UOw,2020-0188,2020-06-04,09:36:34,10:00:17,NA,incomplete,16,number,0,1,right,Blue_Triangle_Grid_1.jpg,Purple_Triangle_Dots_4.jpg,Red_Plus_Chess_1.jpg,right,792.6649999989895,true,NA,NA,NA,NA,NA,NA,NA,NA,true
9uBW4UOw,3kqc8jmjhf51pencp85cgosduim3h1,3y5140z9d1tafi1dkqp6inskmiwipi,9uBW4UOw,2020-0188,2020-06-04,09:36:34,10:00:17,NA,incomplete,17,number,0,1,right,Green_Triangle_Dots_3.jpg,Purple_Triangle_Chess_2.jpg,Red_Circle_Stripes_3.jpg,right,745.2349999984726,true,NA,NA,NA,NA,NA,NA,NA,NA,true
9uBW4UOw,3kqc8jmjhf51pencp85cgosduim3h1,3y5140z9d1tafi1dkqp6inskmiwipi,9uBW4UOw,2020-0188,2020-06-04,09:36:34,10:00:17,NA,incomplete,18,number,0,0,left,Red_Circle_Chess_3.jpg,Green_Plus_Stripes_3.jpg,Blue_Circle_Dots_4.jpg,left,719.7599999998929,true,NA,NA,NA,NA,NA,NA,NA,NA,true
9uBW4UOw,3kqc8jmjhf51pencp85cgosduim3h1,3y5140z9d1tafi1dkqp6inskmiwipi,9uBW4UOw,2020-0188,2020-06-04,09:36:34,10:00:17,NA,incomplete,19,number,0,0,right,Blue_Star_Stripes_1.jpg,Purple_Star_Chess_3.jpg,Green_Plus_Grid_1.jpg,right,1215.1950000006473,true,NA,NA,NA,NA,NA,NA,NA,NA,true
9uBW4UOw,3kqc8jmjhf51pencp85cgosduim3h1,3y5140z9d1tafi1dkqp6inskmiwipi,9uBW4UOw,2020-0188,2020-06-04,09:36:34,10:00:17,NA,incomplete,20,shape,1,0,left,Blue_Star_Grid_1.jpg,Red_Star_Dots_3.jpg,Green_Plus_Chess_1.jpg,left,1609.529999999795,true,NA,NA,NA,NA,NA,NA,NA,NA,true
9uBW4UOw,3kqc8jmjhf51pencp85cgosduim3h1,3y5140z9d1tafi1dkqp6inskmiwipi,9uBW4UOw,2020-0188,2020-06-04,09:36:34,10:00:17,NA,incomplete,21,shape,1,1,right,Red_Triangle_Dots_3.jpg,Green_Plus_Stripes_3.jpg,Purple_Triangle_Chess_1.jpg,right,871.6899999999441,true,NA,NA,NA,NA,NA,NA,NA,NA,true
9uBW4UOw,3kqc8jmjhf51pencp85cgosduim3h1,3y5140z9d1tafi1dkqp6inskmiwipi,9uBW4UOw,2020-0188,2020-06-04,09:36:34,10:00:17,NA,incomplete,22,shape,1,1,right,Purple_Circle_Grid_3.jpg,Blue_Triangle_Chess_3.jpg,Red_Circle_Stripes_2.jpg,right,634.9700000009034,true,NA,NA,NA,NA,NA,NA,NA,NA,true
9uBW4UOw,3kqc8jmjhf51pencp85cgosduim3h1,3y5140z9d1tafi1dkqp6inskmiwipi,9uBW4UOw,2020-0188,2020-06-04,09:36:34,10:00:17,NA,incomplete,23,shape,1,1,right,Purple_Circle_Grid_1.jpg,Blue_Plus_Dots_1.jpg,Red_Circle_Chess_3.jpg,right,457.6049999996321,true,NA,NA,NA,NA,NA,NA,NA,NA,true
9uBW4UOw,3kqc8jmjhf51pencp85cgosduim3h1,3y5140z9d1tafi1dkqp6inskmiwipi,9uBW4UOw,2020-0188,2020-06-04,09:36:34,10:00:17,NA,incomplete,24,shape,1,0,left,Blue_Star_Dots_3.jpg,Red_Star_Stripes_2.jpg,Green_Triangle_Chess_3.jpg,left,982.8249999991385,true,NA,NA,NA,NA,NA,NA,NA,NA,true
9uBW4UOw,3kqc8jmjhf51pencp85cgosduim3h1,3y5140z9d1tafi1dkqp6inskmiwipi,9uBW4UOw,2020-0188,2020-06-04,09:36:34,10:00:17,NA,incomplete,25,shape,1,1,left,Blue_Star_Stripes_4.jpg,Purple_Star_Dots_1.jpg,Green_Circle_Grid_4.jpg,left,732.2450000010431,true,NA,NA,NA,NA,NA,NA,NA,NA,true
9uBW4UOw,3kqc8jmjhf51pencp85cgosduim3h1,3y5140z9d1tafi1dkqp6inskmiwipi,9uBW4UOw,2020-0188,2020-06-04,09:36:34,10:00:17,NA,incomplete,26,shape,1,1,left,Blue_Plus_Chess_2.jpg,Purple_Plus_Dots_3.jpg,Red_Triangle_Stripes_2.jpg,left,705.859999999986,true,NA,NA,NA,NA,NA,NA,NA,NA,true
9uBW4UOw,3kqc8jmjhf51pencp85cgosduim3h1,3y5140z9d1tafi1dkqp6inskmiwipi,9uBW4UOw,2020-0188,2020-06-04,09:36:34,10:00:17,NA,incomplete,27,shape,1,1,right,Green_Star_Chess_2.jpg,Red_Plus_Dots_2.jpg,Blue_Star_Stripes_4.jpg,right,649.2450000005774,true,NA,NA,NA,NA,NA,NA,NA,NA,true
9uBW4UOw,3kqc8jmjhf51pencp85cgosduim3h1,3y5140z9d1tafi1dkqp6inskmiwipi,9uBW4UOw,2020-0188,2020-06-04,09:36:34,10:00:17,NA,incomplete,28,shape,1,1,right,Blue_Star_Grid_4.jpg,Red_Circle_Dots_4.jpg,Green_Star_Chess_1.jpg,right,585.5900000006659,true,NA,NA,NA,NA,NA,NA,NA,NA,true
9uBW4UOw,3kqc8jmjhf51pencp85cgosduim3h1,3y5140z9d1tafi1dkqp6inskmiwipi,9uBW4UOw,2020-0188,2020-06-04,09:36:34,10:00:17,NA,incomplete,29,shape,1,1,left,Red_Triangle_Dots_2.jpg,Green_Triangle_Stripes_4.jpg,Purple_Star_Chess_2.jpg,left,628.3549999989336,true,NA,NA,NA,NA,NA,NA,NA,NA,true
9uBW4UOw,3kqc8jmjhf51pencp85cgosduim3h1,3y5140z9d1tafi1dkqp6inskmiwipi,9uBW4UOw,2020-0188,2020-06-04,09:36:34,10:00:17,NA,incomplete,30,shape,1,1,left,Red_Circle_Chess_4.jpg,Purple_Circle_Dots_1.jpg,Green_Triangle_Grid_4.jpg,left,825.6650000002701,true,NA,NA,NA,NA,NA,NA,NA,NA,true
9uBW4UOw,3kqc8jmjhf51pencp85cgosduim3h1,3y5140z9d1tafi1dkqp6inskmiwipi,9uBW4UOw,2020-0188,2020-06-04,09:36:34,10:00:17,NA,incomplete,31,shape,1,1,right,Blue_Plus_Dots_4.jpg,Green_Triangle_Stripes_4.jpg,Red_Plus_Grid_1.jpg,right,577.3250000001863,true,NA,NA,NA,NA,NA,NA,NA,NA,true
9uBW4UOw,3kqc8jmjhf51pencp85cgosduim3h1,3y5140z9d1tafi1dkqp6inskmiwipi,9uBW4UOw,2020-0188,2020-06-04,09:36:34,10:00:17,NA,incomplete,32,shape,1,0,left,Red_Plus_Dots_4.jpg,Blue_Plus_Stripes_3.jpg,Green_Star_Chess_4.jpg,left,590.5349999993341,true,NA,NA,NA,NA,NA,NA,NA,NA,true
9uBW4UOw,3kqc8jmjhf51pencp85cgosduim3h1,3y5140z9d1tafi1dkqp6inskmiwipi,9uBW4UOw,2020-0188,2020-06-04,09:36:34,10:00:17,NA,incomplete,33,shape,1,1,left,Blue_Star_Chess_3.jpg,Red_Star_Stripes_4.jpg,Green_Circle_Grid_3.jpg,left,1048.429999998887,true,NA,NA,NA,NA,NA,NA,NA,NA,true
9uBW4UOw,3kqc8jmjhf51pencp85cgosduim3h1,3y5140z9d1tafi1dkqp6inskmiwipi,9uBW4UOw,2020-0188,2020-06-04,09:36:34,10:00:17,NA,incomplete,34,shape,1,1,left,Green_Plus_Grid_4.jpg,Blue_Plus_Dots_2.jpg,Red_Star_Chess_4.jpg,left,641.9700000005541,true,NA,NA,NA,NA,NA,NA,NA,NA,true
9uBW4UOw,3kqc8jmjhf51pencp85cgosduim3h1,3y5140z9d1tafi1dkqp6inskmiwipi,9uBW4UOw,2020-0188,2020-06-04,09:36:34,10:00:17,NA,incomplete,35,shape,1,1,left,Blue_Triangle_Chess_2.jpg,Red_Triangle_Dots_3.jpg,Green_Circle_Stripes_2.jpg,left,588.9200000001583,true,NA,NA,NA,NA,NA,NA,NA,NA,true
9uBW4UOw,3kqc8jmjhf51pencp85cgosduim3h1,3y5140z9d1tafi1dkqp6inskmiwipi,9uBW4UOw,2020-0188,2020-06-04,09:36:34,10:00:17,NA,incomplete,36,shape,1,1,left,Green_Plus_Stripes_4.jpg,Red_Plus_Dots_3.jpg,Purple_Circle_Grid_4.jpg,left,575.0150000003632,true,NA,NA,NA,NA,NA,NA,NA,NA,true
9uBW4UOw,3kqc8jmjhf51pencp85cgosduim3h1,3y5140z9d1tafi1dkqp6inskmiwipi,9uBW4UOw,2020-0188,2020-06-04,09:36:34,10:00:17,NA,incomplete,37,shape,1,0,right,Green_Plus_Stripes_2.jpg,Blue_Star_Dots_2.jpg,Red_Plus_Chess_1.jpg,right,632.6950000001816,true,NA,NA,NA,NA,NA,NA,NA,NA,true
9uBW4UOw,3kqc8jmjhf51pencp85cgosduim3h1,3y5140z9d1tafi1dkqp6inskmiwipi,9uBW4UOw,2020-0188,2020-06-04,09:36:34,10:00:17,NA,incomplete,38,shape,1,1,left,Purple_Circle_Stripes_4.jpg,Blue_Circle_Chess_1.jpg,Red_Plus_Grid_4.jpg,left,645.5100000002421,true,NA,NA,NA,NA,NA,NA,NA,NA,true
9uBW4UOw,3kqc8jmjhf51pencp85cgosduim3h1,3y5140z9d1tafi1dkqp6inskmiwipi,9uBW4UOw,2020-0188,2020-06-04,09:36:34,10:00:17,NA,incomplete,39,shape,1,0,right,Purple_Triangle_Chess_3.jpg,Blue_Plus_Stripes_3.jpg,Red_Triangle_Grid_1.jpg,right,739.6499999995576,true,NA,NA,NA,NA,NA,NA,NA,NA,true
9uBW4UOw,3kqc8jmjhf51pencp85cgosduim3h1,3y5140z9d1tafi1dkqp6inskmiwipi,9uBW4UOw,2020-0188,2020-06-04,09:36:34,10:00:17,NA,incomplete,0,number,0,1,right,Red_Triangle_Dots_1.jpg,Green_Triangle_Grid_4.jpg,Purple_Circle_Chess_1.jpg,left,589.2949999998091,false,high,NA,NA,NA,NA,NA,NA,NA,false
9uBW4UOw,3kqc8jmjhf51pencp85cgosduim3h1,3y5140z9d1tafi1dkqp6inskmiwipi,9uBW4UOw,2020-0188,2020-06-04,09:36:34,10:00:17,NA,incomplete,1,number,0,1,right,Purple_Triangle_Stripes_4.jpg,Blue_Triangle_Chess_2.jpg,Red_Plus_Grid_4.jpg,left,759.9549999996088,false,high,NA,NA,NA,NA,NA,NA,NA,false
9uBW4UOw,3kqc8jmjhf51pencp85cgosduim3h1,3y5140z9d1tafi1dkqp6inskmiwipi,9uBW4UOw,2020-0188,2020-06-04,09:36:34,10:00:17,NA,incomplete,2,number,0,1,right,Purple_Plus_Grid_3.jpg,Red_Plus_Stripes_4.jpg,Green_Triangle_Chess_3.jpg,right,756.1000000004424,true,high,NA,NA,NA,NA,NA,NA,NA,false
9uBW4UOw,3kqc8jmjhf51pencp85cgosduim3h1,3y5140z9d1tafi1dkqp6inskmiwipi,9uBW4UOw,2020-0188,2020-06-04,09:36:34,10:00:17,NA,incomplete,3,number,0,1,right,Green_Circle_Grid_4.jpg,Blue_Circle_Chess_1.jpg,Purple_Star_Dots_4.jpg,right,911.5799999999581,true,high,NA,NA,NA,NA,NA,NA,NA,false
9uBW4UOw,3kqc8jmjhf51pencp85cgosduim3h1,3y5140z9d1tafi1dkqp6inskmiwipi,9uBW4UOw,2020-0188,2020-06-04,09:36:34,10:00:17,NA,incomplete,4,number,0,1,right,Green_Circle_Grid_1.jpg,Blue_Circle_Stripes_3.jpg,Red_Plus_Dots_1.jpg,right,608.7999999999302,true,high,NA,NA,NA,NA,NA,NA,NA,false
9uBW4UOw,3kqc8jmjhf51pencp85cgosduim3h1,3y5140z9d1tafi1dkqp6inskmiwipi,9uBW4UOw,2020-0188,2020-06-04,09:36:34,10:00:17,NA,incomplete,5,number,0,1,right,Blue_Star_Chess_1.jpg,Red_Star_Stripes_2.jpg,Purple_Circle_Grid_1.jpg,right,535.6950000005309,true,high,NA,NA,NA,NA,NA,NA,NA,false
9uBW4UOw,3kqc8jmjhf51pencp85cgosduim3h1,3y5140z9d1tafi1dkqp6inskmiwipi,9uBW4UOw,2020-0188,2020-06-04,09:36:34,10:00:17,NA,incomplete,6,number,0,1,left,Green_Circle_Chess_2.jpg,Blue_Triangle_Grid_2.jpg,Red_Circle_Dots_3.jpg,right,604.3499999996275,false,high,NA,NA,NA,NA,NA,NA,NA,false
9uBW4UOw,3kqc8jmjhf51pencp85cgosduim3h1,3y5140z9d1tafi1dkqp6inskmiwipi,9uBW4UOw,2020-0188,2020-06-04,09:36:34,10:00:17,NA,incomplete,7,number,0,0,right,Green_Plus_Stripes_1.jpg,Red_Plus_Dots_2.jpg,Purple_Star_Chess_1.jpg,right,551.2550000003539,true,high,NA,NA,NA,NA,NA,NA,NA,false
9uBW4UOw,3kqc8jmjhf51pencp85cgosduim3h1,3y5140z9d1tafi1dkqp6inskmiwipi,9uBW4UOw,2020-0188,2020-06-04,09:36:34,10:00:17,NA,incomplete,8,number,0,1,right,Blue_Plus_Grid_2.jpg,Purple_Plus_Stripes_1.jpg,Red_Triangle_Chess_2.jpg,left,728.3050000005169,false,high,NA,NA,NA,NA,NA,NA,NA,false
9uBW4UOw,3kqc8jmjhf51pencp85cgosduim3h1,3y5140z9d1tafi1dkqp6inskmiwipi,9uBW4UOw,2020-0188,2020-06-04,09:36:34,10:00:17,NA,incomplete,9,number,0,1,left,Purple_Star_Grid_1.jpg,Blue_Triangle_Dots_1.jpg,Green_Star_Stripes_2.jpg,left,752.1600000000326,true,high,NA,NA,NA,NA,NA,NA,NA,false
9uBW4UOw,3kqc8jmjhf51pencp85cgosduim3h1,3y5140z9d1tafi1dkqp6inskmiwipi,9uBW4UOw,2020-0188,2020-06-04,09:36:34,10:00:17,NA,incomplete,10,shape,1,0,right,Red_Circle_Stripes_2.jpg,Purple_Plus_Dots_2.jpg,Blue_Circle_Grid_3.jpg,left,703.5550000000512,false,high,NA,NA,NA,NA,NA,NA,NA,false
9uBW4UOw,3kqc8jmjhf51pencp85cgosduim3h1,3y5140z9d1tafi1dkqp6inskmiwipi,9uBW4UOw,2020-0188,2020-06-04,09:36:34,10:00:17,NA,incomplete,11,shape,1,1,left,Purple_Circle_Stripes_1.jpg,Red_Circle_Dots_4.jpg,Blue_Triangle_Grid_1.jpg,right,542.5450000001583,false,high,NA,NA,NA,NA,NA,NA,NA,false
9uBW4UOw,3kqc8jmjhf51pencp85cgosduim3h1,3y5140z9d1tafi1dkqp6inskmiwipi,9uBW4UOw,2020-0188,2020-06-04,09:36:34,10:00:17,NA,incomplete,12,shape,1,1,left,Red_Plus_Dots_4.jpg,Blue_Plus_Chess_1.jpg,Green_Star_Grid_4.jpg,left,876.6049999993993,true,high,NA,NA,NA,NA,NA,NA,NA,false
9uBW4UOw,3kqc8jmjhf51pencp85cgosduim3h1,3y5140z9d1tafi1dkqp6inskmiwipi,9uBW4UOw,2020-0188,2020-06-04,09:36:34,10:00:17,NA,incomplete,13,shape,1,1,left,Purple_Circle_Stripes_3.jpg,Red_Circle_Dots_4.jpg,Blue_Triangle_Chess_3.jpg,left,868.6199999992969,true,high,NA,NA,NA,NA,NA,NA,NA,false
9uBW4UOw,3kqc8jmjhf51pencp85cgosduim3h1,3y5140z9d1tafi1dkqp6inskmiwipi,9uBW4UOw,2020-0188,2020-06-04,09:36:34,10:00:17,NA,incomplete,14,shape,1,1,left,Green_Star_Chess_4.jpg,Blue_Star_Grid_2.jpg,Purple_Plus_Dots_4.jpg,left,820.6499999995576,true,high,NA,NA,NA,NA,NA,NA,NA,false
9uBW4UOw,3kqc8jmjhf51pencp85cgosduim3h1,3y5140z9d1tafi1dkqp6inskmiwipi,9uBW4UOw,2020-0188,2020-06-04,09:36:34,10:00:17,NA,incomplete,15,shape,1,1,right,Red_Circle_Stripes_1.jpg,Green_Triangle_Chess_1.jpg,Blue_Circle_Grid_2.jpg,right,1054.0899999996182,true,high,NA,NA,NA,NA,NA,NA,NA,false
9uBW4UOw,3kqc8jmjhf51pencp85cgosduim3h1,3y5140z9d1tafi1dkqp6inskmiwipi,9uBW4UOw,2020-0188,2020-06-04,09:36:34,10:00:17,NA,incomplete,16,shape,1,0,right,Green_Plus_Stripes_2.jpg,Blue_Circle_Dots_2.jpg,Red_Plus_Grid_3.jpg,right,709.0400000015507,true,high,NA,NA,NA,NA,NA,NA,NA,false
9uBW4UOw,3kqc8jmjhf51pencp85cgosduim3h1,3y5140z9d1tafi1dkqp6inskmiwipi,9uBW4UOw,2020-0188,2020-06-04,09:36:34,10:00:17,NA,incomplete,17,shape,1,1,right,Red_Circle_Chess_2.jpg,Green_Triangle_Stripes_2.jpg,Purple_Circle_Grid_3.jpg,right,961.4650000003166,true,high,NA,NA,NA,NA,NA,NA,NA,false
9uBW4UOw,3kqc8jmjhf51pencp85cgosduim3h1,3y5140z9d1tafi1dkqp6inskmiwipi,9uBW4UOw,2020-0188,2020-06-04,09:36:34,10:00:17,NA,incomplete,18,shape,1,0,right,Red_Plus_Grid_4.jpg,Purple_Star_Dots_4.jpg,Blue_Plus_Chess_2.jpg,left,780.3549999989336,false,high,NA,NA,NA,NA,NA,NA,NA,false
9uBW4UOw,3kqc8jmjhf51pencp85cgosduim3h1,3y5140z9d1tafi1dkqp6inskmiwipi,9uBW4UOw,2020-0188,2020-06-04,09:36:34,10:00:17,NA,incomplete,19,shape,1,0,left,Red_Circle_Stripes_4.jpg,Green_Circle_Grid_1.jpg,Blue_Star_Chess_4.jpg,right,693.6150000001071,false,high,NA,NA,NA,NA,NA,NA,NA,false
9uBW4UOw,3kqc8jmjhf51pencp85cgosduim3h1,3y5140z9d1tafi1dkqp6inskmiwipi,9uBW4UOw,2020-0188,2020-06-04,09:36:34,10:00:17,NA,incomplete,20,number,0,0,left,Red_Star_Stripes_4.jpg,Purple_Plus_Grid_4.jpg,Green_Star_Dots_2.jpg,right,489.3149999988964,false,high,NA,NA,NA,NA,NA,NA,NA,false
9uBW4UOw,3kqc8jmjhf51pencp85cgosduim3h1,3y5140z9d1tafi1dkqp6inskmiwipi,9uBW4UOw,2020-0188,2020-06-04,09:36:34,10:00:17,NA,incomplete,21,number,0,1,right,Red_Star_Grid_4.jpg,Blue_Star_Stripes_1.jpg,Purple_Circle_Dots_4.jpg,right,551.8099999990081,true,high,NA,NA,NA,NA,NA,NA,NA,false
9uBW4UOw,3kqc8jmjhf51pencp85cgosduim3h1,3y5140z9d1tafi1dkqp6inskmiwipi,9uBW4UOw,2020-0188,2020-06-04,09:36:34,10:00:17,NA,incomplete,22,number,0,1,right,Blue_Plus_Grid_4.jpg,Green_Plus_Chess_3.jpg,Purple_Triangle_Dots_4.jpg,left,553.2850000017788,false,high,NA,NA,NA,NA,NA,NA,NA,false
9uBW4UOw,3kqc8jmjhf51pencp85cgosduim3h1,3y5140z9d1tafi1dkqp6inskmiwipi,9uBW4UOw,2020-0188,2020-06-04,09:36:34,10:00:17,NA,incomplete,23,number,0,0,left,Blue_Circle_Grid_2.jpg,Purple_Plus_Chess_2.jpg,Green_Circle_Dots_4.jpg,left,648.9250000012107,true,high,NA,NA,NA,NA,NA,NA,NA,false
9uBW4UOw,3kqc8jmjhf51pencp85cgosduim3h1,3y5140z9d1tafi1dkqp6inskmiwipi,9uBW4UOw,2020-0188,2020-06-04,09:36:34,10:00:17,NA,incomplete,24,number,0,1,left,Green_Plus_Grid_3.jpg,Blue_Star_Chess_3.jpg,Red_Plus_Dots_1.jpg,right,1036.3450000004377,false,high,NA,NA,NA,NA,NA,NA,NA,false
9uBW4UOw,3kqc8jmjhf51pencp85cgosduim3h1,3y5140z9d1tafi1dkqp6inskmiwipi,9uBW4UOw,2020-0188,2020-06-04,09:36:34,10:00:17,NA,incomplete,25,number,0,1,right,Purple_Triangle_Dots_3.jpg,Blue_Triangle_Stripes_2.jpg,Red_Plus_Grid_3.jpg,left,703.439999999362,false,high,NA,NA,NA,NA,NA,NA,NA,false
9uBW4UOw,3kqc8jmjhf51pencp85cgosduim3h1,3y5140z9d1tafi1dkqp6inskmiwipi,9uBW4UOw,2020-0188,2020-06-04,09:36:34,10:00:17,NA,incomplete,26,number,0,1,left,Purple_Triangle_Grid_1.jpg,Green_Star_Stripes_1.jpg,Red_Triangle_Chess_2.jpg,left,437.6699999993434,true,high,NA,NA,NA,NA,NA,NA,NA,false
9uBW4UOw,3kqc8jmjhf51pencp85cgosduim3h1,3y5140z9d1tafi1dkqp6inskmiwipi,9uBW4UOw,2020-0188,2020-06-04,09:36:34,10:00:17,NA,incomplete,27,number,0,1,right,Green_Plus_Grid_3.jpg,Red_Plus_Dots_2.jpg,Blue_Circle_Chess_3.jpg,left,91.28999999852385,false,high,NA,NA,NA,NA,NA,NA,NA,false
9uBW4UOw,3kqc8jmjhf51pencp85cgosduim3h1,3y5140z9d1tafi1dkqp6inskmiwipi,9uBW4UOw,2020-0188,2020-06-04,09:36:34,10:00:17,NA,incomplete,28,number,0,1,right,Purple_Plus_Dots_1.jpg,Green_Plus_Stripes_3.jpg,Blue_Star_Chess_1.jpg,right,509.785000000149,true,high,NA,NA,NA,NA,NA,NA,NA,false
9uBW4UOw,3kqc8jmjhf51pencp85cgosduim3h1,3y5140z9d1tafi1dkqp6inskmiwipi,9uBW4UOw,2020-0188,2020-06-04,09:36:34,10:00:17,NA,incomplete,29,number,0,1,right,Blue_Star_Grid_3.jpg,Green_Star_Chess_1.jpg,Purple_Circle_Stripes_3.jpg,right,648.1850000000559,true,high,NA,NA,NA,NA,NA,NA,NA,false
9uBW4UOw,3kqc8jmjhf51pencp85cgosduim3h1,3y5140z9d1tafi1dkqp6inskmiwipi,9uBW4UOw,2020-0188,2020-06-04,09:36:34,10:00:17,NA,incomplete,30,shape,1,0,right,Blue_Plus_Chess_2.jpg,Green_Star_Grid_2.jpg,Red_Plus_Stripes_3.jpg,left,711.7450000005774,false,high,NA,NA,NA,NA,NA,NA,NA,false
9uBW4UOw,3kqc8jmjhf51pencp85cgosduim3h1,3y5140z9d1tafi1dkqp6inskmiwipi,9uBW4UOw,2020-0188,2020-06-04,09:36:34,10:00:17,NA,incomplete,31,shape,1,1,left,Green_Star_Grid_2.jpg,Purple_Star_Chess_4.jpg,Red_Circle_Stripes_2.jpg,right,641.8699999995297,false,high,NA,NA,NA,NA,NA,NA,NA,false
9uBW4UOw,3kqc8jmjhf51pencp85cgosduim3h1,3y5140z9d1tafi1dkqp6inskmiwipi,9uBW4UOw,2020-0188,2020-06-04,09:36:34,10:00:17,NA,incomplete,32,shape,1,1,right,Purple_Circle_Grid_2.jpg,Green_Triangle_Stripes_2.jpg,Red_Circle_Chess_3.jpg,left,867.5149999998976,false,high,NA,NA,NA,NA,NA,NA,NA,false
9uBW4UOw,3kqc8jmjhf51pencp85cgosduim3h1,3y5140z9d1tafi1dkqp6inskmiwipi,9uBW4UOw,2020-0188,2020-06-04,09:36:34,10:00:17,NA,incomplete,33,shape,1,1,right,Blue_Plus_Chess_1.jpg,Red_Star_Grid_1.jpg,Green_Plus_Dots_2.jpg,right,678.0199999994365,true,high,NA,NA,NA,NA,NA,NA,NA,false
9uBW4UOw,3kqc8jmjhf51pencp85cgosduim3h1,3y5140z9d1tafi1dkqp6inskmiwipi,9uBW4UOw,2020-0188,2020-06-04,09:36:34,10:00:17,NA,incomplete,34,shape,1,0,left,Purple_Star_Dots_4.jpg,Red_Star_Stripes_2.jpg,Blue_Circle_Chess_4.jpg,right,872.2399999987101,false,high,NA,NA,NA,NA,NA,NA,NA,false
9uBW4UOw,3kqc8jmjhf51pencp85cgosduim3h1,3y5140z9d1tafi1dkqp6inskmiwipi,9uBW4UOw,2020-0188,2020-06-04,09:36:34,10:00:17,NA,incomplete,35,shape,1,0,left,Blue_Star_Chess_3.jpg,Red_Star_Dots_2.jpg,Purple_Triangle_Grid_3.jpg,right,734.0949999997392,false,high,NA,NA,NA,NA,NA,NA,NA,false
9uBW4UOw,3kqc8jmjhf51pencp85cgosduim3h1,3y5140z9d1tafi1dkqp6inskmiwipi,9uBW4UOw,2020-0188,2020-06-04,09:36:34,10:00:17,NA,incomplete,36,shape,1,1,left,Purple_Star_Grid_3.jpg,Blue_Star_Dots_4.jpg,Green_Plus_Stripes_3.jpg,right,658.9150000000373,false,high,NA,NA,NA,NA,NA,NA,NA,false
9uBW4UOw,3kqc8jmjhf51pencp85cgosduim3h1,3y5140z9d1tafi1dkqp6inskmiwipi,9uBW4UOw,2020-0188,2020-06-04,09:36:34,10:00:17,NA,incomplete,37,shape,1,1,right,Green_Triangle_Chess_2.jpg,Blue_Star_Grid_2.jpg,Purple_Triangle_Dots_3.jpg,left,493.3149999997113,false,high,NA,NA,NA,NA,NA,NA,NA,false
9uBW4UOw,3kqc8jmjhf51pencp85cgosduim3h1,3y5140z9d1tafi1dkqp6inskmiwipi,9uBW4UOw,2020-0188,2020-06-04,09:36:34,10:00:17,NA,incomplete,38,shape,1,1,left,Red_Plus_Grid_2.jpg,Purple_Plus_Stripes_1.jpg,Green_Star_Chess_2.jpg,left,670.7200000000885,true,high,NA,NA,NA,NA,NA,NA,NA,false
9uBW4UOw,3kqc8jmjhf51pencp85cgosduim3h1,3y5140z9d1tafi1dkqp6inskmiwipi,9uBW4UOw,2020-0188,2020-06-04,09:36:34,10:00:17,NA,incomplete,39,shape,1,1,right,Red_Circle_Chess_4.jpg,Purple_Star_Grid_4.jpg,Blue_Circle_Stripes_3.jpg,right,350.34500000078697,true,high,NA,NA,NA,NA,NA,NA,NA,false
9uBW4UOw,3kqc8jmjhf51pencp85cgosduim3h1,3y5140z9d1tafi1dkqp6inskmiwipi,9uBW4UOw,2020-0188,2020-06-04,09:36:34,10:00:17,NA,incomplete,40,number,0,1,left,Green_Circle_Grid_4.jpg,Purple_Triangle_Chess_4.jpg,Red_Circle_Stripes_1.jpg,right,548.9600000000792,false,high,NA,NA,NA,NA,NA,NA,NA,false
9uBW4UOw,3kqc8jmjhf51pencp85cgosduim3h1,3y5140z9d1tafi1dkqp6inskmiwipi,9uBW4UOw,2020-0188,2020-06-04,09:36:34,10:00:17,NA,incomplete,41,number,0,1,right,Purple_Circle_Chess_2.jpg,Red_Circle_Stripes_3.jpg,Green_Triangle_Grid_2.jpg,left,790.7049999994924,false,high,NA,NA,NA,NA,NA,NA,NA,false
9uBW4UOw,3kqc8jmjhf51pencp85cgosduim3h1,3y5140z9d1tafi1dkqp6inskmiwipi,9uBW4UOw,2020-0188,2020-06-04,09:36:34,10:00:17,NA,incomplete,42,number,0,1,left,Purple_Circle_Chess_4.jpg,Red_Triangle_Grid_4.jpg,Green_Circle_Stripes_1.jpg,left,794.3350000005448,true,high,NA,NA,NA,NA,NA,NA,NA,false
9uBW4UOw,3kqc8jmjhf51pencp85cgosduim3h1,3y5140z9d1tafi1dkqp6inskmiwipi,9uBW4UOw,2020-0188,2020-06-04,09:36:34,10:00:17,NA,incomplete,43,number,0,0,left,Green_Triangle_Chess_4.jpg,Blue_Plus_Grid_4.jpg,Red_Triangle_Dots_2.jpg,left,844.0900000004331,true,high,NA,NA,NA,NA,NA,NA,NA,false
9uBW4UOw,3kqc8jmjhf51pencp85cgosduim3h1,3y5140z9d1tafi1dkqp6inskmiwipi,9uBW4UOw,2020-0188,2020-06-04,09:36:34,10:00:17,NA,incomplete,44,number,0,1,left,Blue_Triangle_Stripes_1.jpg,Red_Circle_Dots_1.jpg,Purple_Triangle_Chess_3.jpg,none,0,false,high,NA,NA,NA,NA,NA,NA,NA,false
9uBW4UOw,3kqc8jmjhf51pencp85cgosduim3h1,3y5140z9d1tafi1dkqp6inskmiwipi,9uBW4UOw,2020-0188,2020-06-04,09:36:34,10:00:17,NA,incomplete,45,number,0,1,right,Purple_Star_Dots_4.jpg,Blue_Star_Chess_1.jpg,Green_Circle_Stripes_4.jpg,right,647.8299999998417,true,high,NA,NA,NA,NA,NA,NA,NA,false
9uBW4UOw,3kqc8jmjhf51pencp85cgosduim3h1,3y5140z9d1tafi1dkqp6inskmiwipi,9uBW4UOw,2020-0188,2020-06-04,09:36:34,10:00:17,NA,incomplete,46,number,0,1,right,Red_Star_Stripes_4.jpg,Purple_Star_Chess_3.jpg,Green_Triangle_Dots_4.jpg,right,675.8750000008149,true,high,NA,NA,NA,NA,NA,NA,NA,false
9uBW4UOw,3kqc8jmjhf51pencp85cgosduim3h1,3y5140z9d1tafi1dkqp6inskmiwipi,9uBW4UOw,2020-0188,2020-06-04,09:36:34,10:00:17,NA,incomplete,47,number,0,1,left,Purple_Star_Chess_3.jpg,Green_Plus_Dots_3.jpg,Blue_Star_Grid_2.jpg,right,656.7450000003446,false,high,NA,NA,NA,NA,NA,NA,NA,false
9uBW4UOw,3kqc8jmjhf51pencp85cgosduim3h1,3y5140z9d1tafi1dkqp6inskmiwipi,9uBW4UOw,2020-0188,2020-06-04,09:36:34,10:00:17,NA,incomplete,48,number,0,1,left,Blue_Plus_Grid_1.jpg,Green_Triangle_Dots_1.jpg,Red_Plus_Stripes_3.jpg,left,141.26500000013039,true,high,NA,NA,NA,NA,NA,NA,NA,false
9uBW4UOw,3kqc8jmjhf51pencp85cgosduim3h1,3y5140z9d1tafi1dkqp6inskmiwipi,9uBW4UOw,2020-0188,2020-06-04,09:36:34,10:00:17,NA,incomplete,49,number,0,1,left,Blue_Star_Stripes_1.jpg,Purple_Circle_Dots_1.jpg,Red_Star_Chess_3.jpg,left,700.6700000001583,true,high,NA,NA,NA,NA,NA,NA,NA,false
9uBW4UOw,3kqc8jmjhf51pencp85cgosduim3h1,3y5140z9d1tafi1dkqp6inskmiwipi,9uBW4UOw,2020-0188,2020-06-04,09:36:34,10:00:17,NA,incomplete,50,shape,1,1,right,Purple_Plus_Stripes_1.jpg,Green_Circle_Grid_1.jpg,Blue_Plus_Dots_4.jpg,left,531.1400000009453,false,high,NA,NA,NA,NA,NA,NA,NA,false
9uBW4UOw,3kqc8jmjhf51pencp85cgosduim3h1,3y5140z9d1tafi1dkqp6inskmiwipi,9uBW4UOw,2020-0188,2020-06-04,09:36:34,10:00:17,NA,incomplete,51,shape,1,1,left,Blue_Triangle_Grid_2.jpg,Purple_Triangle_Chess_4.jpg,Red_Plus_Stripes_2.jpg,right,722.1100000005681,false,high,NA,NA,NA,NA,NA,NA,NA,false
9uBW4UOw,3kqc8jmjhf51pencp85cgosduim3h1,3y5140z9d1tafi1dkqp6inskmiwipi,9uBW4UOw,2020-0188,2020-06-04,09:36:34,10:00:17,NA,incomplete,52,shape,1,1,left,Blue_Plus_Stripes_1.jpg,Green_Plus_Grid_2.jpg,Red_Triangle_Chess_1.jpg,left,603.8150000004098,true,high,NA,NA,NA,NA,NA,NA,NA,false
9uBW4UOw,3kqc8jmjhf51pencp85cgosduim3h1,3y5140z9d1tafi1dkqp6inskmiwipi,9uBW4UOw,2020-0188,2020-06-04,09:36:34,10:00:17,NA,incomplete,53,shape,1,1,left,Purple_Circle_Stripes_1.jpg,Blue_Circle_Chess_2.jpg,Red_Triangle_Grid_1.jpg,right,635.5999999996275,false,high,NA,NA,NA,NA,NA,NA,NA,false
9uBW4UOw,3kqc8jmjhf51pencp85cgosduim3h1,3y5140z9d1tafi1dkqp6inskmiwipi,9uBW4UOw,2020-0188,2020-06-04,09:36:34,10:00:17,NA,incomplete,54,shape,1,0,left,Red_Star_Dots_2.jpg,Purple_Star_Stripes_3.jpg,Green_Plus_Chess_2.jpg,right,787.0599999987753,false,high,NA,NA,NA,NA,NA,NA,NA,false
9uBW4UOw,3kqc8jmjhf51pencp85cgosduim3h1,3y5140z9d1tafi1dkqp6inskmiwipi,9uBW4UOw,2020-0188,2020-06-04,09:36:34,10:00:17,NA,incomplete,55,shape,1,1,left,Blue_Plus_Dots_2.jpg,Green_Plus_Stripes_3.jpg,Purple_Circle_Chess_2.jpg,right,637.3000000003958,false,high,NA,NA,NA,NA,NA,NA,NA,false
9uBW4UOw,3kqc8jmjhf51pencp85cgosduim3h1,3y5140z9d1tafi1dkqp6inskmiwipi,9uBW4UOw,2020-0188,2020-06-04,09:36:34,10:00:17,NA,incomplete,56,shape,1,1,left,Blue_Plus_Stripes_4.jpg,Red_Plus_Dots_1.jpg,Green_Circle_Grid_4.jpg,left,855.2849999996834,true,high,NA,NA,NA,NA,NA,NA,NA,false
9uBW4UOw,3kqc8jmjhf51pencp85cgosduim3h1,3y5140z9d1tafi1dkqp6inskmiwipi,9uBW4UOw,2020-0188,2020-06-04,09:36:34,10:00:17,NA,incomplete,57,shape,1,1,left,Purple_Plus_Dots_4.jpg,Green_Plus_Chess_3.jpg,Red_Star_Grid_4.jpg,left,456.759999999078,true,high,NA,NA,NA,NA,NA,NA,NA,false
9uBW4UOw,3kqc8jmjhf51pencp85cgosduim3h1,3y5140z9d1tafi1dkqp6inskmiwipi,9uBW4UOw,2020-0188,2020-06-04,09:36:34,10:00:17,NA,incomplete,58,shape,1,0,left,Red_Triangle_Grid_2.jpg,Blue_Triangle_Stripes_4.jpg,Green_Circle_Chess_2.jpg,left,399.99999999965075,true,high,NA,NA,NA,NA,NA,NA,NA,false
9uBW4UOw,3kqc8jmjhf51pencp85cgosduim3h1,3y5140z9d1tafi1dkqp6inskmiwipi,9uBW4UOw,2020-0188,2020-06-04,09:36:34,10:00:17,NA,incomplete,59,shape,1,1,right,Green_Circle_Stripes_1.jpg,Red_Plus_Grid_1.jpg,Blue_Circle_Dots_2.jpg,right,308.8449999995064,true,high,NA,NA,NA,NA,NA,NA,NA,false
9uBW4UOw,3kqc8jmjhf51pencp85cgosduim3h1,3y5140z9d1tafi1dkqp6inskmiwipi,9uBW4UOw,2020-0188,2020-06-04,09:36:34,10:00:17,NA,incomplete,60,number,0,1,right,Purple_Triangle_Grid_1.jpg,Red_Triangle_Dots_3.jpg,Blue_Circle_Chess_1.jpg,left,581.6599999999162,false,high,NA,NA,NA,NA,NA,NA,NA,false
9uBW4UOw,3kqc8jmjhf51pencp85cgosduim3h1,3y5140z9d1tafi1dkqp6inskmiwipi,9uBW4UOw,2020-0188,2020-06-04,09:36:34,10:00:17,NA,incomplete,61,number,0,0,right,Red_Circle_Grid_1.jpg,Green_Circle_Stripes_4.jpg,Blue_Triangle_Dots_1.jpg,right,473.735000001383,true,high,NA,NA,NA,NA,NA,NA,NA,false
9uBW4UOw,3kqc8jmjhf51pencp85cgosduim3h1,3y5140z9d1tafi1dkqp6inskmiwipi,9uBW4UOw,2020-0188,2020-06-04,09:36:34,10:00:17,NA,incomplete,62,number,0,1,right,Blue_Star_Dots_1.jpg,Purple_Star_Grid_3.jpg,Green_Plus_Stripes_1.jpg,left,675.3449999996228,false,high,NA,NA,NA,NA,NA,NA,NA,false
9uBW4UOw,3kqc8jmjhf51pencp85cgosduim3h1,3y5140z9d1tafi1dkqp6inskmiwipi,9uBW4UOw,2020-0188,2020-06-04,09:36:34,10:00:17,NA,incomplete,63,number,0,0,right,Red_Star_Stripes_4.jpg,Green_Star_Grid_1.jpg,Purple_Plus_Chess_4.jpg,right,680.430000000284,true,high,NA,NA,NA,NA,NA,NA,NA,false
9uBW4UOw,3kqc8jmjhf51pencp85cgosduim3h1,3y5140z9d1tafi1dkqp6inskmiwipi,9uBW4UOw,2020-0188,2020-06-04,09:36:34,10:00:17,NA,incomplete,64,number,0,1,left,Green_Circle_Dots_2.jpg,Blue_Star_Stripes_2.jpg,Purple_Circle_Grid_1.jpg,left,951.7849999993341,true,high,NA,NA,NA,NA,NA,NA,NA,false
9uBW4UOw,3kqc8jmjhf51pencp85cgosduim3h1,3y5140z9d1tafi1dkqp6inskmiwipi,9uBW4UOw,2020-0188,2020-06-04,09:36:34,10:00:17,NA,incomplete,65,number,0,1,right,Red_Triangle_Grid_2.jpg,Purple_Triangle_Chess_4.jpg,Green_Star_Stripes_2.jpg,right,735.4200000008568,true,high,NA,NA,NA,NA,NA,NA,NA,false
9uBW4UOw,3kqc8jmjhf51pencp85cgosduim3h1,3y5140z9d1tafi1dkqp6inskmiwipi,9uBW4UOw,2020-0188,2020-06-04,09:36:34,10:00:17,NA,incomplete,66,number,0,1,left,Purple_Plus_Chess_4.jpg,Green_Circle_Grid_4.jpg,Red_Plus_Stripes_1.jpg,left,650.7250000013737,true,high,NA,NA,NA,NA,NA,NA,NA,false
9uBW4UOw,3kqc8jmjhf51pencp85cgosduim3h1,3y5140z9d1tafi1dkqp6inskmiwipi,9uBW4UOw,2020-0188,2020-06-04,09:36:34,10:00:17,NA,incomplete,67,number,0,1,left,Purple_Star_Grid_2.jpg,Red_Circle_Dots_2.jpg,Green_Star_Stripes_1.jpg,left,652.4150000005029,true,high,NA,NA,NA,NA,NA,NA,NA,false
9uBW4UOw,3kqc8jmjhf51pencp85cgosduim3h1,3y5140z9d1tafi1dkqp6inskmiwipi,9uBW4UOw,2020-0188,2020-06-04,09:36:34,10:00:17,NA,incomplete,68,number,0,1,right,Green_Circle_Stripes_2.jpg,Blue_Circle_Dots_4.jpg,Red_Triangle_Chess_2.jpg,right,633.2299999995157,true,high,NA,NA,NA,NA,NA,NA,NA,false
9uBW4UOw,3kqc8jmjhf51pencp85cgosduim3h1,3y5140z9d1tafi1dkqp6inskmiwipi,9uBW4UOw,2020-0188,2020-06-04,09:36:34,10:00:17,NA,incomplete,69,number,0,1,right,Red_Star_Dots_1.jpg,Green_Star_Grid_3.jpg,Purple_Plus_Chess_1.jpg,right,706.7900000001537,true,high,NA,NA,NA,NA,NA,NA,NA,false
9uBW4UOw,3kqc8jmjhf51pencp85cgosduim3h1,3y5140z9d1tafi1dkqp6inskmiwipi,9uBW4UOw,2020-0188,2020-06-04,09:36:34,10:00:17,NA,incomplete,70,shape,1,1,right,Blue_Circle_Dots_1.jpg,Purple_Plus_Chess_1.jpg,Red_Circle_Stripes_2.jpg,left,796.9649999995017,false,high,NA,NA,NA,NA,NA,NA,NA,false
9uBW4UOw,3kqc8jmjhf51pencp85cgosduim3h1,3y5140z9d1tafi1dkqp6inskmiwipi,9uBW4UOw,2020-0188,2020-06-04,09:36:34,10:00:17,NA,incomplete,71,shape,1,1,right,Green_Triangle_Grid_1.jpg,Blue_Circle_Stripes_1.jpg,Purple_Triangle_Chess_2.jpg,left,516.7550000004703,false,high,NA,NA,NA,NA,NA,NA,NA,false
9uBW4UOw,3kqc8jmjhf51pencp85cgosduim3h1,3y5140z9d1tafi1dkqp6inskmiwipi,9uBW4UOw,2020-0188,2020-06-04,09:36:34,10:00:17,NA,incomplete,72,shape,1,1,left,Blue_Plus_Stripes_1.jpg,Red_Plus_Dots_4.jpg,Purple_Circle_Chess_1.jpg,right,743.0199999999022,false,high,NA,NA,NA,NA,NA,NA,NA,false
9uBW4UOw,3kqc8jmjhf51pencp85cgosduim3h1,3y5140z9d1tafi1dkqp6inskmiwipi,9uBW4UOw,2020-0188,2020-06-04,09:36:34,10:00:17,NA,incomplete,73,shape,1,1,right,Purple_Plus_Grid_4.jpg,Red_Circle_Stripes_4.jpg,Green_Plus_Chess_3.jpg,right,630.6900000000605,true,high,NA,NA,NA,NA,NA,NA,NA,false
9uBW4UOw,3kqc8jmjhf51pencp85cgosduim3h1,3y5140z9d1tafi1dkqp6inskmiwipi,9uBW4UOw,2020-0188,2020-06-04,09:36:34,10:00:17,NA,incomplete,74,shape,1,1,left,Red_Plus_Dots_3.jpg,Blue_Plus_Grid_2.jpg,Green_Triangle_Chess_3.jpg,right,426.97999999835156,false,high,NA,NA,NA,NA,NA,NA,NA,false
9uBW4UOw,3kqc8jmjhf51pencp85cgosduim3h1,3y5140z9d1tafi1dkqp6inskmiwipi,9uBW4UOw,2020-0188,2020-06-04,09:36:34,10:00:17,NA,incomplete,75,shape,1,1,left,Green_Star_Chess_3.jpg,Purple_Star_Dots_2.jpg,Blue_Triangle_Stripes_3.jpg,left,671.5350000013132,true,high,NA,NA,NA,NA,NA,NA,NA,false
9uBW4UOw,3kqc8jmjhf51pencp85cgosduim3h1,3y5140z9d1tafi1dkqp6inskmiwipi,9uBW4UOw,2020-0188,2020-06-04,09:36:34,10:00:17,NA,incomplete,76,shape,1,0,right,Green_Triangle_Chess_1.jpg,Red_Circle_Dots_1.jpg,Blue_Triangle_Stripes_3.jpg,right,1206.7399999996414,true,high,NA,NA,NA,NA,NA,NA,NA,false
9uBW4UOw,3kqc8jmjhf51pencp85cgosduim3h1,3y5140z9d1tafi1dkqp6inskmiwipi,9uBW4UOw,2020-0188,2020-06-04,09:36:34,10:00:17,NA,incomplete,77,shape,1,1,right,Red_Circle_Chess_1.jpg,Purple_Star_Grid_1.jpg,Green_Circle_Dots_3.jpg,right,752.4199999989942,true,high,NA,NA,NA,NA,NA,NA,NA,false
9uBW4UOw,3kqc8jmjhf51pencp85cgosduim3h1,3y5140z9d1tafi1dkqp6inskmiwipi,9uBW4UOw,2020-0188,2020-06-04,09:36:34,10:00:17,NA,incomplete,78,shape,1,1,right,Red_Star_Stripes_2.jpg,Green_Triangle_Dots_2.jpg,Purple_Star_Grid_1.jpg,right,585.6399999993155,true,high,NA,NA,NA,NA,NA,NA,NA,false
9uBW4UOw,3kqc8jmjhf51pencp85cgosduim3h1,3y5140z9d1tafi1dkqp6inskmiwipi,9uBW4UOw,2020-0188,2020-06-04,09:36:34,10:00:17,NA,incomplete,79,shape,1,1,right,Purple_Star_Dots_4.jpg,Blue_Plus_Chess_4.jpg,Green_Star_Stripes_3.jpg,none,0,false,high,NA,NA,NA,NA,NA,NA,NA,false
9uBW4UOw,3kqc8jmjhf51pencp85cgosduim3h1,3y5140z9d1tafi1dkqp6inskmiwipi,9uBW4UOw,2020-0188,2020-06-04,09:36:34,10:00:17,NA,incomplete,80,number,0,1,left,Blue_Triangle_Stripes_1.jpg,Purple_Star_Dots_1.jpg,Green_Triangle_Grid_3.jpg,right,940.899999999674,false,high,NA,NA,NA,NA,NA,NA,NA,false
9uBW4UOw,3kqc8jmjhf51pencp85cgosduim3h1,3y5140z9d1tafi1dkqp6inskmiwipi,9uBW4UOw,2020-0188,2020-06-04,09:36:34,10:00:17,NA,incomplete,81,number,0,0,left,Green_Triangle_Dots_2.jpg,Blue_Star_Grid_2.jpg,Purple_Triangle_Stripes_1.jpg,left,71.72999999963213,true,high,NA,NA,NA,NA,NA,NA,NA,false
9uBW4UOw,3kqc8jmjhf51pencp85cgosduim3h1,3y5140z9d1tafi1dkqp6inskmiwipi,9uBW4UOw,2020-0188,2020-06-04,09:36:34,10:00:17,NA,incomplete,82,number,0,1,right,Purple_Circle_Stripes_1.jpg,Green_Circle_Dots_4.jpg,Blue_Plus_Chess_1.jpg,right,769.7699999988545,true,high,NA,NA,NA,NA,NA,NA,NA,false
9uBW4UOw,3kqc8jmjhf51pencp85cgosduim3h1,3y5140z9d1tafi1dkqp6inskmiwipi,9uBW4UOw,2020-0188,2020-06-04,09:36:34,10:00:17,NA,incomplete,83,number,0,1,left,Red_Circle_Chess_2.jpg,Green_Star_Dots_2.jpg,Blue_Circle_Grid_3.jpg,left,558.4550000003073,true,high,NA,NA,NA,NA,NA,NA,NA,false
9uBW4UOw,3kqc8jmjhf51pencp85cgosduim3h1,3y5140z9d1tafi1dkqp6inskmiwipi,9uBW4UOw,2020-0188,2020-06-04,09:36:34,10:00:17,NA,incomplete,84,number,0,1,left,Red_Plus_Chess_3.jpg,Purple_Circle_Dots_3.jpg,Green_Plus_Grid_4.jpg,right,505.2000000013504,false,high,NA,NA,NA,NA,NA,NA,NA,false
9uBW4UOw,3kqc8jmjhf51pencp85cgosduim3h1,3y5140z9d1tafi1dkqp6inskmiwipi,9uBW4UOw,2020-0188,2020-06-04,09:36:34,10:00:17,NA,incomplete,85,number,0,1,right,Purple_Triangle_Dots_2.jpg,Green_Triangle_Chess_1.jpg,Blue_Star_Stripes_2.jpg,right,815.2749999989755,true,high,NA,NA,NA,NA,NA,NA,NA,false
9uBW4UOw,3kqc8jmjhf51pencp85cgosduim3h1,3y5140z9d1tafi1dkqp6inskmiwipi,9uBW4UOw,2020-0188,2020-06-04,09:36:34,10:00:17,NA,incomplete,86,number,0,1,right,Red_Star_Dots_4.jpg,Green_Star_Grid_1.jpg,Purple_Triangle_Stripes_4.jpg,right,617.259999999078,true,high,NA,NA,NA,NA,NA,NA,NA,false
9uBW4UOw,3kqc8jmjhf51pencp85cgosduim3h1,3y5140z9d1tafi1dkqp6inskmiwipi,9uBW4UOw,2020-0188,2020-06-04,09:36:34,10:00:17,NA,incomplete,87,number,0,1,left,Blue_Circle_Stripes_1.jpg,Purple_Plus_Dots_1.jpg,Red_Circle_Chess_2.jpg,left,560.8949999987381,true,high,NA,NA,NA,NA,NA,NA,NA,false
9uBW4UOw,3kqc8jmjhf51pencp85cgosduim3h1,3y5140z9d1tafi1dkqp6inskmiwipi,9uBW4UOw,2020-0188,2020-06-04,09:36:34,10:00:17,NA,incomplete,88,number,0,1,right,Purple_Star_Dots_4.jpg,Red_Star_Chess_1.jpg,Green_Plus_Stripes_4.jpg,right,512.6849999997066,true,high,NA,NA,NA,NA,NA,NA,NA,false
9uBW4UOw,3kqc8jmjhf51pencp85cgosduim3h1,3y5140z9d1tafi1dkqp6inskmiwipi,9uBW4UOw,2020-0188,2020-06-04,09:36:34,10:00:17,NA,incomplete,89,number,0,0,right,Blue_Star_Chess_4.jpg,Green_Star_Grid_2.jpg,Purple_Triangle_Stripes_4.jpg,right,602.1699999982957,true,high,NA,NA,NA,NA,NA,NA,NA,false
9uBW4UOw,3kqc8jmjhf51pencp85cgosduim3h1,3y5140z9d1tafi1dkqp6inskmiwipi,9uBW4UOw,2020-0188,2020-06-04,09:36:34,10:00:17,NA,incomplete,90,shape,1,1,left,Green_Plus_Dots_1.jpg,Blue_Plus_Chess_2.jpg,Red_Circle_Grid_1.jpg,right,529.109999999404,false,high,NA,NA,NA,NA,NA,NA,NA,false
9uBW4UOw,3kqc8jmjhf51pencp85cgosduim3h1,3y5140z9d1tafi1dkqp6inskmiwipi,9uBW4UOw,2020-0188,2020-06-04,09:36:34,10:00:17,NA,incomplete,91,shape,1,1,right,Green_Plus_Chess_2.jpg,Blue_Triangle_Dots_2.jpg,Red_Plus_Stripes_3.jpg,right,738.0149999989662,true,high,NA,NA,NA,NA,NA,NA,NA,false
9uBW4UOw,3kqc8jmjhf51pencp85cgosduim3h1,3y5140z9d1tafi1dkqp6inskmiwipi,9uBW4UOw,2020-0188,2020-06-04,09:36:34,10:00:17,NA,incomplete,92,shape,1,1,right,Red_Circle_Chess_4.jpg,Green_Triangle_Stripes_4.jpg,Purple_Circle_Grid_2.jpg,right,469.9999999993015,true,high,NA,NA,NA,NA,NA,NA,NA,false
9uBW4UOw,3kqc8jmjhf51pencp85cgosduim3h1,3y5140z9d1tafi1dkqp6inskmiwipi,9uBW4UOw,2020-0188,2020-06-04,09:36:34,10:00:17,NA,incomplete,93,shape,1,1,right,Purple_Triangle_Dots_2.jpg,Green_Plus_Chess_2.jpg,Red_Triangle_Stripes_4.jpg,right,616.5899999997346,true,high,NA,NA,NA,NA,NA,NA,NA,false
9uBW4UOw,3kqc8jmjhf51pencp85cgosduim3h1,3y5140z9d1tafi1dkqp6inskmiwipi,9uBW4UOw,2020-0188,2020-06-04,09:36:34,10:00:17,NA,incomplete,94,shape,1,0,right,Purple_Plus_Chess_2.jpg,Green_Triangle_Grid_2.jpg,Red_Plus_Stripes_3.jpg,right,569.2700000000186,true,high,NA,NA,NA,NA,NA,NA,NA,false
9uBW4UOw,3kqc8jmjhf51pencp85cgosduim3h1,3y5140z9d1tafi1dkqp6inskmiwipi,9uBW4UOw,2020-0188,2020-06-04,09:36:34,10:00:17,NA,incomplete,95,shape,1,0,left,Blue_Triangle_Dots_4.jpg,Green_Triangle_Stripes_2.jpg,Purple_Plus_Chess_4.jpg,right,666.9449999990175,false,high,NA,NA,NA,NA,NA,NA,NA,false
9uBW4UOw,3kqc8jmjhf51pencp85cgosduim3h1,3y5140z9d1tafi1dkqp6inskmiwipi,9uBW4UOw,2020-0188,2020-06-04,09:36:34,10:00:17,NA,incomplete,96,shape,1,0,left,Purple_Star_Stripes_2.jpg,Green_Star_Dots_1.jpg,Blue_Circle_Chess_2.jpg,right,788.4150000008522,false,high,NA,NA,NA,NA,NA,NA,NA,false
9uBW4UOw,3kqc8jmjhf51pencp85cgosduim3h1,3y5140z9d1tafi1dkqp6inskmiwipi,9uBW4UOw,2020-0188,2020-06-04,09:36:34,10:00:17,NA,incomplete,97,shape,1,1,left,Red_Circle_Chess_3.jpg,Green_Circle_Stripes_1.jpg,Blue_Star_Dots_3.jpg,right,604.3050000007497,false,high,NA,NA,NA,NA,NA,NA,NA,false
9uBW4UOw,3kqc8jmjhf51pencp85cgosduim3h1,3y5140z9d1tafi1dkqp6inskmiwipi,9uBW4UOw,2020-0188,2020-06-04,09:36:34,10:00:17,NA,incomplete,98,shape,1,1,left,Red_Circle_Grid_1.jpg,Blue_Circle_Chess_4.jpg,Purple_Star_Dots_1.jpg,right,569.9000000003725,false,high,NA,NA,NA,NA,NA,NA,NA,false
9uBW4UOw,3kqc8jmjhf51pencp85cgosduim3h1,3y5140z9d1tafi1dkqp6inskmiwipi,9uBW4UOw,2020-0188,2020-06-04,09:36:34,10:00:17,NA,incomplete,99,shape,1,1,right,Purple_Plus_Grid_1.jpg,Red_Circle_Dots_1.jpg,Green_Plus_Chess_4.jpg,right,691.2649999994319,true,high,NA,NA,NA,NA,NA,NA,NA,false
9uBW4UOw,3kqc8jmjhf51pencp85cgosduim3h1,3y5140z9d1tafi1dkqp6inskmiwipi,9uBW4UOw,2020-0188,2020-06-04,09:36:34,10:00:17,NA,incomplete,100,number,0,1,left,Purple_Star_Grid_1.jpg,Blue_Plus_Chess_1.jpg,Green_Star_Dots_3.jpg,right,570.7650000004796,false,high,NA,NA,NA,NA,NA,NA,NA,false
9uBW4UOw,3kqc8jmjhf51pencp85cgosduim3h1,3y5140z9d1tafi1dkqp6inskmiwipi,9uBW4UOw,2020-0188,2020-06-04,09:36:34,10:00:17,NA,incomplete,101,number,0,1,left,Green_Circle_Grid_3.jpg,Purple_Star_Chess_3.jpg,Blue_Circle_Dots_4.jpg,left,671.1349999987287,true,high,NA,NA,NA,NA,NA,NA,NA,false
9uBW4UOw,3kqc8jmjhf51pencp85cgosduim3h1,3y5140z9d1tafi1dkqp6inskmiwipi,9uBW4UOw,2020-0188,2020-06-04,09:36:34,10:00:17,NA,incomplete,102,number,0,0,right,Red_Circle_Chess_1.jpg,Green_Circle_Stripes_3.jpg,Purple_Star_Dots_1.jpg,left,203.51499999919906,false,high,NA,NA,NA,NA,NA,NA,NA,false
9uBW4UOw,3kqc8jmjhf51pencp85cgosduim3h1,3y5140z9d1tafi1dkqp6inskmiwipi,9uBW4UOw,2020-0188,2020-06-04,09:36:34,10:00:17,NA,incomplete,103,number,0,1,right,Blue_Plus_Stripes_4.jpg,Purple_Plus_Dots_3.jpg,Red_Circle_Grid_4.jpg,right,456.1400000002468,true,high,NA,NA,NA,NA,NA,NA,NA,false
9uBW4UOw,3kqc8jmjhf51pencp85cgosduim3h1,3y5140z9d1tafi1dkqp6inskmiwipi,9uBW4UOw,2020-0188,2020-06-04,09:36:34,10:00:17,NA,incomplete,104,number,0,1,left,Green_Plus_Stripes_3.jpg,Purple_Star_Grid_3.jpg,Red_Plus_Dots_1.jpg,left,267.3450000002049,true,high,NA,NA,NA,NA,NA,NA,NA,false
9uBW4UOw,3kqc8jmjhf51pencp85cgosduim3h1,3y5140z9d1tafi1dkqp6inskmiwipi,9uBW4UOw,2020-0188,2020-06-04,09:36:34,10:00:17,NA,incomplete,105,number,0,1,left,Green_Plus_Chess_4.jpg,Purple_Star_Stripes_4.jpg,Red_Plus_Grid_1.jpg,right,227.67500000016298,false,high,NA,NA,NA,NA,NA,NA,NA,false
9uBW4UOw,3kqc8jmjhf51pencp85cgosduim3h1,3y5140z9d1tafi1dkqp6inskmiwipi,9uBW4UOw,2020-0188,2020-06-04,09:36:34,10:00:17,NA,incomplete,106,number,0,0,right,Red_Circle_Dots_4.jpg,Blue_Circle_Chess_1.jpg,Green_Triangle_Grid_4.jpg,left,407.8150000005262,false,high,NA,NA,NA,NA,NA,NA,NA,false
9uBW4UOw,3kqc8jmjhf51pencp85cgosduim3h1,3y5140z9d1tafi1dkqp6inskmiwipi,9uBW4UOw,2020-0188,2020-06-04,09:36:34,10:00:17,NA,incomplete,107,number,0,0,right,Green_Plus_Grid_3.jpg,Red_Plus_Stripes_1.jpg,Blue_Circle_Dots_3.jpg,left,357.7249999998603,false,high,NA,NA,NA,NA,NA,NA,NA,false
9uBW4UOw,3kqc8jmjhf51pencp85cgosduim3h1,3y5140z9d1tafi1dkqp6inskmiwipi,9uBW4UOw,2020-0188,2020-06-04,09:36:34,10:00:17,NA,incomplete,108,number,0,1,left,Green_Circle_Stripes_4.jpg,Red_Plus_Dots_4.jpg,Blue_Circle_Grid_3.jpg,left,343.96999999985565,true,high,NA,NA,NA,NA,NA,NA,NA,false
9uBW4UOw,3kqc8jmjhf51pencp85cgosduim3h1,3y5140z9d1tafi1dkqp6inskmiwipi,9uBW4UOw,2020-0188,2020-06-04,09:36:34,10:00:17,NA,incomplete,109,number,0,1,left,Blue_Star_Stripes_4.jpg,Green_Plus_Dots_4.jpg,Purple_Star_Grid_1.jpg,right,27.855000000214204,false,high,NA,NA,NA,NA,NA,NA,NA,false
9uBW4UOw,3kqc8jmjhf51pencp85cgosduim3h1,3y5140z9d1tafi1dkqp6inskmiwipi,9uBW4UOw,2020-0188,2020-06-04,09:36:34,10:00:17,NA,incomplete,110,shape,1,1,right,Purple_Triangle_Stripes_4.jpg,Red_Star_Chess_4.jpg,Blue_Triangle_Grid_1.jpg,left,92.59500000008848,false,high,NA,NA,NA,NA,NA,NA,NA,false
9uBW4UOw,3kqc8jmjhf51pencp85cgosduim3h1,3y5140z9d1tafi1dkqp6inskmiwipi,9uBW4UOw,2020-0188,2020-06-04,09:36:34,10:00:17,NA,incomplete,111,shape,1,1,left,Blue_Triangle_Chess_1.jpg,Green_Triangle_Grid_3.jpg,Purple_Circle_Stripes_1.jpg,right,306.2449999996461,false,high,NA,NA,NA,NA,NA,NA,NA,false
9uBW4UOw,3kqc8jmjhf51pencp85cgosduim3h1,3y5140z9d1tafi1dkqp6inskmiwipi,9uBW4UOw,2020-0188,2020-06-04,09:36:34,10:00:17,NA,incomplete,112,shape,1,1,left,Green_Star_Dots_1.jpg,Blue_Star_Chess_3.jpg,Purple_Triangle_Stripes_1.jpg,left,542.625,true,high,NA,NA,NA,NA,NA,NA,NA,false
9uBW4UOw,3kqc8jmjhf51pencp85cgosduim3h1,3y5140z9d1tafi1dkqp6inskmiwipi,9uBW4UOw,2020-0188,2020-06-04,09:36:34,10:00:17,NA,incomplete,113,shape,1,1,right,Blue_Triangle_Chess_3.jpg,Green_Star_Grid_3.jpg,Purple_Triangle_Dots_4.jpg,right,481.33000000054017,true,high,NA,NA,NA,NA,NA,NA,NA,false
9uBW4UOw,3kqc8jmjhf51pencp85cgosduim3h1,3y5140z9d1tafi1dkqp6inskmiwipi,9uBW4UOw,2020-0188,2020-06-04,09:36:34,10:00:17,NA,incomplete,114,shape,1,1,left,Purple_Triangle_Grid_3.jpg,Red_Triangle_Stripes_4.jpg,Green_Star_Dots_3.jpg,left,578.9349999994738,true,high,NA,NA,NA,NA,NA,NA,NA,false
9uBW4UOw,3kqc8jmjhf51pencp85cgosduim3h1,3y5140z9d1tafi1dkqp6inskmiwipi,9uBW4UOw,2020-0188,2020-06-04,09:36:34,10:00:17,NA,incomplete,115,shape,1,1,left,Green_Circle_Stripes_4.jpg,Purple_Circle_Chess_1.jpg,Blue_Triangle_Grid_4.jpg,right,708.9350000005215,false,high,NA,NA,NA,NA,NA,NA,NA,false
9uBW4UOw,3kqc8jmjhf51pencp85cgosduim3h1,3y5140z9d1tafi1dkqp6inskmiwipi,9uBW4UOw,2020-0188,2020-06-04,09:36:34,10:00:17,NA,incomplete,116,shape,1,1,left,Green_Triangle_Stripes_2.jpg,Blue_Triangle_Grid_4.jpg,Red_Star_Dots_2.jpg,left,485.0750000005355,true,high,NA,NA,NA,NA,NA,NA,NA,false
9uBW4UOw,3kqc8jmjhf51pencp85cgosduim3h1,3y5140z9d1tafi1dkqp6inskmiwipi,9uBW4UOw,2020-0188,2020-06-04,09:36:34,10:00:17,NA,incomplete,117,shape,1,1,right,Red_Star_Dots_4.jpg,Blue_Plus_Stripes_4.jpg,Purple_Star_Grid_3.jpg,right,553.8649999997579,true,high,NA,NA,NA,NA,NA,NA,NA,false
9uBW4UOw,3kqc8jmjhf51pencp85cgosduim3h1,3y5140z9d1tafi1dkqp6inskmiwipi,9uBW4UOw,2020-0188,2020-06-04,09:36:34,10:00:17,NA,incomplete,118,shape,1,1,left,Purple_Star_Dots_4.jpg,Green_Star_Stripes_1.jpg,Red_Triangle_Chess_4.jpg,right,916.2100000012433,false,high,NA,NA,NA,NA,NA,NA,NA,false
9uBW4UOw,3kqc8jmjhf51pencp85cgosduim3h1,3y5140z9d1tafi1dkqp6inskmiwipi,9uBW4UOw,2020-0188,2020-06-04,09:36:34,10:00:17,NA,incomplete,119,shape,1,1,right,Red_Plus_Dots_3.jpg,Green_Circle_Chess_3.jpg,Blue_Plus_Stripes_4.jpg,right,724.9849999989383,true,high,NA,NA,NA,NA,NA,NA,NA,false
9uBW4UOw,3kqc8jmjhf51pencp85cgosduim3h1,3y5140z9d1tafi1dkqp6inskmiwipi,9uBW4UOw,2020-0188,2020-06-04,09:36:34,10:00:17,NA,incomplete,120,race,2,0,left,A_M_04.jpg,A_F_03.jpg,C_M_15.jpg,NA,NA,NA,high,NA,NA,NA,NA,NA,NA,NA,false
9uBW4UOw,3kqc8jmjhf51pencp85cgosduim3h1,3y5140z9d1tafi1dkqp6inskmiwipi,9uBW4UOw,2020-0188,2020-06-04,09:36:34,10:00:17,NA,incomplete,121,race,2,1,left,A_F_05.jpg,A_M_10.jpg,C_F_03.jpg,left,1789.1600000003818,true,high,NA,NA,NA,NA,NA,NA,NA,false
9uBW4UOw,3kqc8jmjhf51pencp85cgosduim3h1,3y5140z9d1tafi1dkqp6inskmiwipi,9uBW4UOw,2020-0188,2020-06-04,09:36:34,10:00:17,NA,incomplete,122,race,2,0,right,A_F_11.jpg,C_F_02.jpg,A_M_03.jpg,none,0,false,high,NA,NA,NA,NA,NA,NA,NA,false
9uBW4UOw,3kqc8jmjhf51pencp85cgosduim3h1,3y5140z9d1tafi1dkqp6inskmiwipi,9uBW4UOw,2020-0188,2020-06-04,09:36:34,10:00:17,NA,incomplete,123,race,2,1,right,A_M_05.jpg,C_M_02.jpg,A_F_13.jpg,right,1002.4649999996182,true,high,NA,NA,NA,NA,NA,NA,NA,false
9uBW4UOw,3kqc8jmjhf51pencp85cgosduim3h1,3y5140z9d1tafi1dkqp6inskmiwipi,9uBW4UOw,2020-0188,2020-06-04,09:36:34,10:00:17,NA,incomplete,124,race,2,1,left,A_M_05.jpg,A_F_06.jpg,C_M_01.jpg,left,1268.9649999993853,true,high,NA,NA,NA,NA,NA,NA,NA,false
9uBW4UOw,3kqc8jmjhf51pencp85cgosduim3h1,3y5140z9d1tafi1dkqp6inskmiwipi,9uBW4UOw,2020-0188,2020-06-04,09:36:34,10:00:17,NA,incomplete,125,race,2,1,left,C_F_03.jpg,C_M_08.jpg,A_F_14.jpg,left,1113.3099999988917,true,high,NA,NA,NA,NA,NA,NA,NA,false
9uBW4UOw,3kqc8jmjhf51pencp85cgosduim3h1,3y5140z9d1tafi1dkqp6inskmiwipi,9uBW4UOw,2020-0188,2020-06-04,09:36:34,10:00:17,NA,incomplete,126,race,2,1,right,C_M_03.jpg,A_M_10.jpg,C_F_07.jpg,right,1039.755000001518,true,high,NA,NA,NA,NA,NA,NA,NA,false
9uBW4UOw,3kqc8jmjhf51pencp85cgosduim3h1,3y5140z9d1tafi1dkqp6inskmiwipi,9uBW4UOw,2020-0188,2020-06-04,09:36:34,10:00:17,NA,incomplete,127,race,2,0,left,C_F_08.jpg,C_M_11.jpg,A_F_04.jpg,left,963.8499999982305,true,high,NA,NA,NA,NA,NA,NA,NA,false
9uBW4UOw,3kqc8jmjhf51pencp85cgosduim3h1,3y5140z9d1tafi1dkqp6inskmiwipi,9uBW4UOw,2020-0188,2020-06-04,09:36:34,10:00:17,NA,incomplete,128,race,2,1,left,A_F_01.jpg,A_M_13.jpg,C_F_05.jpg,left,1268.6099999991711,true,high,NA,NA,NA,NA,NA,NA,NA,false
9uBW4UOw,3kqc8jmjhf51pencp85cgosduim3h1,3y5140z9d1tafi1dkqp6inskmiwipi,9uBW4UOw,2020-0188,2020-06-04,09:36:34,10:00:17,NA,incomplete,129,race,2,1,right,C_M_15.jpg,A_M_12.jpg,C_F_07.jpg,left,634.1799999990035,false,high,NA,NA,NA,NA,NA,NA,NA,false
9uBW4UOw,3kqc8jmjhf51pencp85cgosduim3h1,3y5140z9d1tafi1dkqp6inskmiwipi,9uBW4UOw,2020-0188,2020-06-04,09:36:34,10:00:17,NA,incomplete,130,race,2,1,left,C_F_01.jpg,C_M_10.jpg,A_F_16.jpg,right,541.7899999993388,false,high,NA,NA,NA,NA,NA,NA,NA,false
9uBW4UOw,3kqc8jmjhf51pencp85cgosduim3h1,3y5140z9d1tafi1dkqp6inskmiwipi,9uBW4UOw,2020-0188,2020-06-04,09:36:34,10:00:17,NA,incomplete,131,race,2,1,right,A_F_02.jpg,C_F_06.jpg,A_M_11.jpg,right,1128.3949999997858,true,high,NA,NA,NA,NA,NA,NA,NA,false
9uBW4UOw,3kqc8jmjhf51pencp85cgosduim3h1,3y5140z9d1tafi1dkqp6inskmiwipi,9uBW4UOw,2020-0188,2020-06-04,09:36:34,10:00:17,NA,incomplete,132,race,2,1,right,A_F_03.jpg,C_F_16.jpg,A_M_11.jpg,left,1063.1099999991711,false,high,NA,NA,NA,NA,NA,NA,NA,false
9uBW4UOw,3kqc8jmjhf51pencp85cgosduim3h1,3y5140z9d1tafi1dkqp6inskmiwipi,9uBW4UOw,2020-0188,2020-06-04,09:36:34,10:00:17,NA,incomplete,133,race,2,1,left,C_F_09.jpg,C_M_05.jpg,A_F_03.jpg,left,1214.5799999998417,true,high,NA,NA,NA,NA,NA,NA,NA,false
9uBW4UOw,3kqc8jmjhf51pencp85cgosduim3h1,3y5140z9d1tafi1dkqp6inskmiwipi,9uBW4UOw,2020-0188,2020-06-04,09:36:34,10:00:17,NA,incomplete,134,race,2,1,right,C_M_08.jpg,A_M_16.jpg,C_F_05.jpg,left,707.5000000002328,false,high,NA,NA,NA,NA,NA,NA,NA,false
9uBW4UOw,3kqc8jmjhf51pencp85cgosduim3h1,3y5140z9d1tafi1dkqp6inskmiwipi,9uBW4UOw,2020-0188,2020-06-04,09:36:34,10:00:17,NA,incomplete,135,race,2,1,right,A_F_13.jpg,C_F_01.jpg,A_M_05.jpg,right,1079.110000000568,true,high,NA,NA,NA,NA,NA,NA,NA,false
9uBW4UOw,3kqc8jmjhf51pencp85cgosduim3h1,3y5140z9d1tafi1dkqp6inskmiwipi,9uBW4UOw,2020-0188,2020-06-04,09:36:34,10:00:17,NA,incomplete,136,race,2,0,left,C_M_11.jpg,C_F_03.jpg,A_M_13.jpg,left,680.2150000003166,true,high,NA,NA,NA,NA,NA,NA,NA,false
9uBW4UOw,3kqc8jmjhf51pencp85cgosduim3h1,3y5140z9d1tafi1dkqp6inskmiwipi,9uBW4UOw,2020-0188,2020-06-04,09:36:34,10:00:17,NA,incomplete,137,race,2,1,right,C_M_15.jpg,A_M_13.jpg,C_F_06.jpg,right,940.6999999990221,true,high,NA,NA,NA,NA,NA,NA,NA,false
9uBW4UOw,3kqc8jmjhf51pencp85cgosduim3h1,3y5140z9d1tafi1dkqp6inskmiwipi,9uBW4UOw,2020-0188,2020-06-04,09:36:34,10:00:17,NA,incomplete,138,race,2,0,left,A_M_04.jpg,A_F_06.jpg,C_M_09.jpg,left,805.4900000006892,true,high,NA,NA,NA,NA,NA,NA,NA,false
9uBW4UOw,3kqc8jmjhf51pencp85cgosduim3h1,3y5140z9d1tafi1dkqp6inskmiwipi,9uBW4UOw,2020-0188,2020-06-04,09:36:34,10:00:17,NA,incomplete,139,race,2,1,right,A_M_16.jpg,C_M_13.jpg,A_F_07.jpg,right,922.964999999851,true,high,NA,NA,NA,NA,NA,NA,NA,false
9uBW4UOw,3kqc8jmjhf51pencp85cgosduim3h1,3y5140z9d1tafi1dkqp6inskmiwipi,9uBW4UOw,2020-0188,2020-06-04,09:36:34,10:00:17,NA,incomplete,140,gender,3,1,right,C_F_08.jpg,C_M_11.jpg,A_F_07.jpg,left,971.364999999525,false,high,NA,NA,NA,NA,NA,NA,NA,false
9uBW4UOw,3kqc8jmjhf51pencp85cgosduim3h1,3y5140z9d1tafi1dkqp6inskmiwipi,9uBW4UOw,2020-0188,2020-06-04,09:36:34,10:00:17,NA,incomplete,141,gender,3,0,left,A_F_05.jpg,C_F_14.jpg,A_M_12.jpg,left,977.9749999998603,true,high,NA,NA,NA,NA,NA,NA,NA,false
9uBW4UOw,3kqc8jmjhf51pencp85cgosduim3h1,3y5140z9d1tafi1dkqp6inskmiwipi,9uBW4UOw,2020-0188,2020-06-04,09:36:34,10:00:17,NA,incomplete,142,gender,3,1,left,C_M_11.jpg,A_M_04.jpg,C_F_02.jpg,right,927.8250000006519,false,high,NA,NA,NA,NA,NA,NA,NA,false
9uBW4UOw,3kqc8jmjhf51pencp85cgosduim3h1,3y5140z9d1tafi1dkqp6inskmiwipi,9uBW4UOw,2020-0188,2020-06-04,09:36:34,10:00:17,NA,incomplete,143,gender,3,1,right,C_F_12.jpg,C_M_06.jpg,A_F_02.jpg,right,1033.1850000002887,true,high,NA,NA,NA,NA,NA,NA,NA,false
9uBW4UOw,3kqc8jmjhf51pencp85cgosduim3h1,3y5140z9d1tafi1dkqp6inskmiwipi,9uBW4UOw,2020-0188,2020-06-04,09:36:34,10:00:17,NA,incomplete,144,gender,3,1,left,C_M_10.jpg,A_M_12.jpg,C_F_14.jpg,left,810.6299999998882,true,high,NA,NA,NA,NA,NA,NA,NA,false
9uBW4UOw,3kqc8jmjhf51pencp85cgosduim3h1,3y5140z9d1tafi1dkqp6inskmiwipi,9uBW4UOw,2020-0188,2020-06-04,09:36:34,10:00:17,NA,incomplete,145,gender,3,1,right,A_F_12.jpg,A_M_11.jpg,C_F_01.jpg,left,929.6699999994598,false,high,NA,NA,NA,NA,NA,NA,NA,false
9uBW4UOw,3kqc8jmjhf51pencp85cgosduim3h1,3y5140z9d1tafi1dkqp6inskmiwipi,9uBW4UOw,2020-0188,2020-06-04,09:36:34,10:00:17,NA,incomplete,146,gender,3,1,left,A_M_10.jpg,C_M_11.jpg,A_F_16.jpg,left,1192.885000000475,true,high,NA,NA,NA,NA,NA,NA,NA,false
9uBW4UOw,3kqc8jmjhf51pencp85cgosduim3h1,3y5140z9d1tafi1dkqp6inskmiwipi,9uBW4UOw,2020-0188,2020-06-04,09:36:34,10:00:17,NA,incomplete,147,gender,3,1,left,C_F_12.jpg,A_F_13.jpg,C_M_06.jpg,left,781.7499999983702,true,high,NA,NA,NA,NA,NA,NA,NA,false
9uBW4UOw,3kqc8jmjhf51pencp85cgosduim3h1,3y5140z9d1tafi1dkqp6inskmiwipi,9uBW4UOw,2020-0188,2020-06-04,09:36:34,10:00:17,NA,incomplete,148,gender,3,0,left,C_M_05.jpg,A_M_16.jpg,C_F_03.jpg,left,852.1049999997485,true,high,NA,NA,NA,NA,NA,NA,NA,false
9uBW4UOw,3kqc8jmjhf51pencp85cgosduim3h1,3y5140z9d1tafi1dkqp6inskmiwipi,9uBW4UOw,2020-0188,2020-06-04,09:36:34,10:00:17,NA,incomplete,149,gender,3,1,left,C_F_01.jpg,A_F_04.jpg,C_M_08.jpg,right,562.7550000008196,false,high,NA,NA,NA,NA,NA,NA,NA,false
9uBW4UOw,3kqc8jmjhf51pencp85cgosduim3h1,3y5140z9d1tafi1dkqp6inskmiwipi,9uBW4UOw,2020-0188,2020-06-04,09:36:34,10:00:17,NA,incomplete,150,gender,3,1,right,A_M_05.jpg,A_F_06.jpg,C_M_14.jpg,right,933.0250000003725,true,high,NA,NA,NA,NA,NA,NA,NA,false
9uBW4UOw,3kqc8jmjhf51pencp85cgosduim3h1,3y5140z9d1tafi1dkqp6inskmiwipi,9uBW4UOw,2020-0188,2020-06-04,09:36:34,10:00:17,NA,incomplete,151,gender,3,0,right,C_F_07.jpg,C_M_13.jpg,A_F_05.jpg,left,944.31499999878,false,high,NA,NA,NA,NA,NA,NA,NA,false
9uBW4UOw,3kqc8jmjhf51pencp85cgosduim3h1,3y5140z9d1tafi1dkqp6inskmiwipi,9uBW4UOw,2020-0188,2020-06-04,09:36:34,10:00:17,NA,incomplete,152,gender,3,1,right,A_F_01.jpg,A_M_12.jpg,C_F_03.jpg,left,1110.2149999986868,false,high,NA,NA,NA,NA,NA,NA,NA,false
9uBW4UOw,3kqc8jmjhf51pencp85cgosduim3h1,3y5140z9d1tafi1dkqp6inskmiwipi,9uBW4UOw,2020-0188,2020-06-04,09:36:34,10:00:17,NA,incomplete,153,gender,3,1,right,C_M_07.jpg,C_F_12.jpg,A_M_03.jpg,left,1335.4099999996834,false,high,NA,NA,NA,NA,NA,NA,NA,false
9uBW4UOw,3kqc8jmjhf51pencp85cgosduim3h1,3y5140z9d1tafi1dkqp6inskmiwipi,9uBW4UOw,2020-0188,2020-06-04,09:36:34,10:00:17,NA,incomplete,154,gender,3,1,left,A_M_16.jpg,C_M_09.jpg,A_F_04.jpg,left,1189.3650000002235,true,high,NA,NA,NA,NA,NA,NA,NA,false
9uBW4UOw,3kqc8jmjhf51pencp85cgosduim3h1,3y5140z9d1tafi1dkqp6inskmiwipi,9uBW4UOw,2020-0188,2020-06-04,09:36:34,10:00:17,NA,incomplete,155,gender,3,1,left,C_F_04.jpg,A_F_11.jpg,C_M_06.jpg,right,1138.9299999992363,false,high,NA,NA,NA,NA,NA,NA,NA,false
9uBW4UOw,3kqc8jmjhf51pencp85cgosduim3h1,3y5140z9d1tafi1dkqp6inskmiwipi,9uBW4UOw,2020-0188,2020-06-04,09:36:34,10:00:17,NA,incomplete,156,gender,3,1,right,A_F_14.jpg,A_M_04.jpg,C_F_08.jpg,left,1220.924999999581,false,high,NA,NA,NA,NA,NA,NA,NA,false
9uBW4UOw,3kqc8jmjhf51pencp85cgosduim3h1,3y5140z9d1tafi1dkqp6inskmiwipi,9uBW4UOw,2020-0188,2020-06-04,09:36:34,10:00:17,NA,incomplete,157,gender,3,0,right,A_F_16.jpg,A_M_13.jpg,C_F_08.jpg,left,1127.2250000000931,false,high,NA,NA,NA,NA,NA,NA,NA,false
9uBW4UOw,3kqc8jmjhf51pencp85cgosduim3h1,3y5140z9d1tafi1dkqp6inskmiwipi,9uBW4UOw,2020-0188,2020-06-04,09:36:34,10:00:17,NA,incomplete,158,gender,3,1,left,C_F_14.jpg,A_F_16.jpg,C_M_06.jpg,right,1207.6049999997485,false,high,NA,NA,NA,NA,NA,NA,NA,false
9uBW4UOw,3kqc8jmjhf51pencp85cgosduim3h1,3y5140z9d1tafi1dkqp6inskmiwipi,9uBW4UOw,2020-0188,2020-06-04,09:36:34,10:00:17,NA,incomplete,159,gender,3,0,left,C_F_14.jpg,A_F_07.jpg,C_M_09.jpg,left,222.98500000033528,true,high,NA,NA,NA,NA,NA,NA,NA,false
9uBW4UOw,3kqc8jmjhf51pencp85cgosduim3h1,3y5140z9d1tafi1dkqp6inskmiwipi,9uBW4UOw,2020-0188,2020-06-04,09:36:34,10:00:17,NA,incomplete,160,race,2,1,left,A_M_10.jpg,A_F_01.jpg,C_M_15.jpg,left,900.6449999997858,true,high,NA,NA,NA,NA,NA,NA,NA,false
9uBW4UOw,3kqc8jmjhf51pencp85cgosduim3h1,3y5140z9d1tafi1dkqp6inskmiwipi,9uBW4UOw,2020-0188,2020-06-04,09:36:34,10:00:17,NA,incomplete,161,race,2,1,right,A_M_08.jpg,C_M_14.jpg,A_F_09.jpg,left,619.2449999998789,false,high,NA,NA,NA,NA,NA,NA,NA,false
9uBW4UOw,3kqc8jmjhf51pencp85cgosduim3h1,3y5140z9d1tafi1dkqp6inskmiwipi,9uBW4UOw,2020-0188,2020-06-04,09:36:34,10:00:17,NA,incomplete,162,race,2,0,left,C_M_16.jpg,C_F_10.jpg,A_M_05.jpg,left,856.9299999999348,true,high,NA,NA,NA,NA,NA,NA,NA,false
9uBW4UOw,3kqc8jmjhf51pencp85cgosduim3h1,3y5140z9d1tafi1dkqp6inskmiwipi,9uBW4UOw,2020-0188,2020-06-04,09:36:34,10:00:17,NA,incomplete,163,race,2,1,right,C_M_12.jpg,A_M_14.jpg,C_F_08.jpg,left,683.9999999993015,false,high,NA,NA,NA,NA,NA,NA,NA,false
9uBW4UOw,3kqc8jmjhf51pencp85cgosduim3h1,3y5140z9d1tafi1dkqp6inskmiwipi,9uBW4UOw,2020-0188,2020-06-04,09:36:34,10:00:17,NA,incomplete,164,race,2,0,left,C_M_07.jpg,C_F_08.jpg,A_M_10.jpg,right,180.62499999906868,false,high,NA,NA,NA,NA,NA,NA,NA,false
9uBW4UOw,3kqc8jmjhf51pencp85cgosduim3h1,3y5140z9d1tafi1dkqp6inskmiwipi,9uBW4UOw,2020-0188,2020-06-04,09:36:34,10:00:17,NA,incomplete,165,race,2,1,right,C_F_11.jpg,A_F_06.jpg,C_M_05.jpg,right,496.06499999924563,true,high,NA,NA,NA,NA,NA,NA,NA,false
9uBW4UOw,3kqc8jmjhf51pencp85cgosduim3h1,3y5140z9d1tafi1dkqp6inskmiwipi,9uBW4UOw,2020-0188,2020-06-04,09:36:34,10:00:17,NA,incomplete,166,race,2,1,left,C_F_03.jpg,C_M_15.jpg,A_F_16.jpg,right,318.91999999969266,false,high,NA,NA,NA,NA,NA,NA,NA,false
9uBW4UOw,3kqc8jmjhf51pencp85cgosduim3h1,3y5140z9d1tafi1dkqp6inskmiwipi,9uBW4UOw,2020-0188,2020-06-04,09:36:34,10:00:17,NA,incomplete,167,race,2,0,left,C_M_15.jpg,C_F_05.jpg,A_M_01.jpg,left,113.84999999962747,true,high,NA,NA,NA,NA,NA,NA,NA,false
9uBW4UOw,3kqc8jmjhf51pencp85cgosduim3h1,3y5140z9d1tafi1dkqp6inskmiwipi,9uBW4UOw,2020-0188,2020-06-04,09:36:34,10:00:17,NA,incomplete,168,race,2,1,right,C_M_03.jpg,A_M_16.jpg,C_F_15.jpg,right,577.6349999995437,true,high,NA,NA,NA,NA,NA,NA,NA,false
9uBW4UOw,3kqc8jmjhf51pencp85cgosduim3h1,3y5140z9d1tafi1dkqp6inskmiwipi,9uBW4UOw,2020-0188,2020-06-04,09:36:34,10:00:17,NA,incomplete,169,race,2,1,right,C_F_07.jpg,A_F_05.jpg,C_M_09.jpg,right,446.8699999996461,true,high,NA,NA,NA,NA,NA,NA,NA,false
9uBW4UOw,3kqc8jmjhf51pencp85cgosduim3h1,3y5140z9d1tafi1dkqp6inskmiwipi,9uBW4UOw,2020-0188,2020-06-04,09:36:34,10:00:17,NA,incomplete,170,race,2,0,left,A_M_14.jpg,A_F_07.jpg,C_M_02.jpg,right,137.06500000087544,false,high,NA,NA,NA,NA,NA,NA,NA,false
9uBW4UOw,3kqc8jmjhf51pencp85cgosduim3h1,3y5140z9d1tafi1dkqp6inskmiwipi,9uBW4UOw,2020-0188,2020-06-04,09:36:34,10:00:17,NA,incomplete,171,race,2,1,right,A_F_16.jpg,C_F_01.jpg,A_M_13.jpg,left,417.69000000017695,false,high,NA,NA,NA,NA,NA,NA,NA,false
9uBW4UOw,3kqc8jmjhf51pencp85cgosduim3h1,3y5140z9d1tafi1dkqp6inskmiwipi,9uBW4UOw,2020-0188,2020-06-04,09:36:34,10:00:17,NA,incomplete,172,race,2,1,left,C_F_04.jpg,C_M_10.jpg,A_F_16.jpg,right,112.04999999981374,false,high,NA,NA,NA,NA,NA,NA,NA,false
9uBW4UOw,3kqc8jmjhf51pencp85cgosduim3h1,3y5140z9d1tafi1dkqp6inskmiwipi,9uBW4UOw,2020-0188,2020-06-04,09:36:34,10:00:17,NA,incomplete,173,race,2,1,right,A_M_06.jpg,C_M_03.jpg,A_F_09.jpg,left,254.48499999940395,false,high,NA,NA,NA,NA,NA,NA,NA,false
9uBW4UOw,3kqc8jmjhf51pencp85cgosduim3h1,3y5140z9d1tafi1dkqp6inskmiwipi,9uBW4UOw,2020-0188,2020-06-04,09:36:34,10:00:17,NA,incomplete,174,race,2,0,right,A_M_12.jpg,C_M_14.jpg,A_F_09.jpg,left,51.84499999997206,false,high,NA,NA,NA,NA,NA,NA,NA,false
9uBW4UOw,3kqc8jmjhf51pencp85cgosduim3h1,3y5140z9d1tafi1dkqp6inskmiwipi,9uBW4UOw,2020-0188,2020-06-04,09:36:34,10:00:17,NA,incomplete,175,race,2,1,left,A_F_09.jpg,A_M_01.jpg,C_F_10.jpg,left,102.52500000037253,true,high,NA,NA,NA,NA,NA,NA,NA,false
9uBW4UOw,3kqc8jmjhf51pencp85cgosduim3h1,3y5140z9d1tafi1dkqp6inskmiwipi,9uBW4UOw,2020-0188,2020-06-04,09:36:34,10:00:17,NA,incomplete,176,race,2,1,left,C_F_09.jpg,C_M_05.jpg,A_F_01.jpg,left,398.47999999974854,true,high,NA,NA,NA,NA,NA,NA,NA,false
9uBW4UOw,3kqc8jmjhf51pencp85cgosduim3h1,3y5140z9d1tafi1dkqp6inskmiwipi,9uBW4UOw,2020-0188,2020-06-04,09:36:34,10:00:17,NA,incomplete,177,race,2,1,right,C_F_02.jpg,A_F_04.jpg,C_M_13.jpg,left,15.815000000642613,false,high,NA,NA,NA,NA,NA,NA,NA,false
9uBW4UOw,3kqc8jmjhf51pencp85cgosduim3h1,3y5140z9d1tafi1dkqp6inskmiwipi,9uBW4UOw,2020-0188,2020-06-04,09:36:34,10:00:17,NA,incomplete,178,race,2,1,right,A_M_11.jpg,C_M_08.jpg,A_F_04.jpg,right,505.23499999870546,true,high,NA,NA,NA,NA,NA,NA,NA,false
9uBW4UOw,3kqc8jmjhf51pencp85cgosduim3h1,3y5140z9d1tafi1dkqp6inskmiwipi,9uBW4UOw,2020-0188,2020-06-04,09:36:34,10:00:17,NA,incomplete,179,race,2,1,right,A_F_05.jpg,C_F_12.jpg,A_M_02.jpg,right,373.2799999997951,true,high,NA,NA,NA,NA,NA,NA,NA,false
9uBW4UOw,3kqc8jmjhf51pencp85cgosduim3h1,3y5140z9d1tafi1dkqp6inskmiwipi,9uBW4UOw,2020-0188,2020-06-04,09:36:34,10:00:17,NA,incomplete,180,gender,3,0,right,A_M_11.jpg,A_F_03.jpg,C_M_10.jpg,right,43.739999999059364,true,high,NA,NA,NA,NA,NA,NA,NA,false
9uBW4UOw,3kqc8jmjhf51pencp85cgosduim3h1,3y5140z9d1tafi1dkqp6inskmiwipi,9uBW4UOw,2020-0188,2020-06-04,09:36:34,10:00:17,NA,incomplete,181,gender,3,1,left,C_F_05.jpg,A_F_11.jpg,C_M_02.jpg,right,268.3400000005495,false,high,NA,NA,NA,NA,NA,NA,NA,false
9uBW4UOw,3kqc8jmjhf51pencp85cgosduim3h1,3y5140z9d1tafi1dkqp6inskmiwipi,9uBW4UOw,2020-0188,2020-06-04,09:36:34,10:00:17,NA,incomplete,182,gender,3,1,left,C_F_06.jpg,A_F_03.jpg,C_M_10.jpg,left,91.71999999857508,true,high,NA,NA,NA,NA,NA,NA,NA,false
9uBW4UOw,3kqc8jmjhf51pencp85cgosduim3h1,3y5140z9d1tafi1dkqp6inskmiwipi,9uBW4UOw,2020-0188,2020-06-04,09:36:34,10:00:17,NA,incomplete,183,gender,3,1,left,C_M_09.jpg,A_M_13.jpg,C_F_07.jpg,left,57.95500000030734,true,high,NA,NA,NA,NA,NA,NA,NA,false
9uBW4UOw,3kqc8jmjhf51pencp85cgosduim3h1,3y5140z9d1tafi1dkqp6inskmiwipi,9uBW4UOw,2020-0188,2020-06-04,09:36:34,10:00:17,NA,incomplete,184,gender,3,1,left,A_F_01.jpg,C_F_16.jpg,A_M_07.jpg,left,32.10000000032596,true,high,NA,NA,NA,NA,NA,NA,NA,false
9uBW4UOw,3kqc8jmjhf51pencp85cgosduim3h1,3y5140z9d1tafi1dkqp6inskmiwipi,9uBW4UOw,2020-0188,2020-06-04,09:36:34,10:00:17,NA,incomplete,185,gender,3,1,right,A_M_04.jpg,A_F_11.jpg,C_M_05.jpg,left,310.42500000144355,false,high,NA,NA,NA,NA,NA,NA,NA,false
9uBW4UOw,3kqc8jmjhf51pencp85cgosduim3h1,3y5140z9d1tafi1dkqp6inskmiwipi,9uBW4UOw,2020-0188,2020-06-04,09:36:34,10:00:17,NA,incomplete,186,gender,3,0,right,A_F_04.jpg,A_M_08.jpg,C_F_05.jpg,left,14.815000000409782,false,high,NA,NA,NA,NA,NA,NA,NA,false
9uBW4UOw,3kqc8jmjhf51pencp85cgosduim3h1,3y5140z9d1tafi1dkqp6inskmiwipi,9uBW4UOw,2020-0188,2020-06-04,09:36:34,10:00:17,NA,incomplete,187,gender,3,1,right,C_M_16.jpg,C_F_08.jpg,A_M_12.jpg,left,55.929999998770654,false,high,NA,NA,NA,NA,NA,NA,NA,false
9uBW4UOw,3kqc8jmjhf51pencp85cgosduim3h1,3y5140z9d1tafi1dkqp6inskmiwipi,9uBW4UOw,2020-0188,2020-06-04,09:36:34,10:00:17,NA,incomplete,188,gender,3,1,left,C_F_07.jpg,A_F_06.jpg,C_M_13.jpg,right,246.18500000005588,false,high,NA,NA,NA,NA,NA,NA,NA,false
9uBW4UOw,3kqc8jmjhf51pencp85cgosduim3h1,3y5140z9d1tafi1dkqp6inskmiwipi,9uBW4UOw,2020-0188,2020-06-04,09:36:34,10:00:17,NA,incomplete,189,gender,3,1,left,C_F_14.jpg,A_F_12.jpg,C_M_16.jpg,right,621.2700000014156,false,high,NA,NA,NA,NA,NA,NA,NA,false
9uBW4UOw,3kqc8jmjhf51pencp85cgosduim3h1,3y5140z9d1tafi1dkqp6inskmiwipi,9uBW4UOw,2020-0188,2020-06-04,09:36:34,10:00:17,NA,incomplete,190,gender,3,1,left,A_M_03.jpg,C_M_11.jpg,A_F_12.jpg,right,865.1100000005681,false,high,NA,NA,NA,NA,NA,NA,NA,false
9uBW4UOw,3kqc8jmjhf51pencp85cgosduim3h1,3y5140z9d1tafi1dkqp6inskmiwipi,9uBW4UOw,2020-0188,2020-06-04,09:36:34,10:00:17,NA,incomplete,191,gender,3,0,left,C_M_04.jpg,A_M_10.jpg,C_F_02.jpg,left,883.4600000008941,true,high,NA,NA,NA,NA,NA,NA,NA,false
9uBW4UOw,3kqc8jmjhf51pencp85cgosduim3h1,3y5140z9d1tafi1dkqp6inskmiwipi,9uBW4UOw,2020-0188,2020-06-04,09:36:34,10:00:17,NA,incomplete,192,gender,3,1,right,C_M_06.jpg,C_F_01.jpg,A_M_07.jpg,left,961.529999998631,false,high,NA,NA,NA,NA,NA,NA,NA,false
9uBW4UOw,3kqc8jmjhf51pencp85cgosduim3h1,3y5140z9d1tafi1dkqp6inskmiwipi,9uBW4UOw,2020-0188,2020-06-04,09:36:34,10:00:17,NA,incomplete,193,gender,3,1,left,C_M_04.jpg,A_M_14.jpg,C_F_01.jpg,right,797.5150000003632,false,high,NA,NA,NA,NA,NA,NA,NA,false
9uBW4UOw,3kqc8jmjhf51pencp85cgosduim3h1,3y5140z9d1tafi1dkqp6inskmiwipi,9uBW4UOw,2020-0188,2020-06-04,09:36:34,10:00:17,NA,incomplete,194,gender,3,1,left,A_M_05.jpg,C_M_10.jpg,A_F_04.jpg,left,250.20999999833293,true,high,NA,NA,NA,NA,NA,NA,NA,false
9uBW4UOw,3kqc8jmjhf51pencp85cgosduim3h1,3y5140z9d1tafi1dkqp6inskmiwipi,9uBW4UOw,2020-0188,2020-06-04,09:36:34,10:00:17,NA,incomplete,195,gender,3,1,right,C_M_06.jpg,C_F_05.jpg,A_M_12.jpg,left,5.084999998798594,false,high,NA,NA,NA,NA,NA,NA,NA,false
9uBW4UOw,3kqc8jmjhf51pencp85cgosduim3h1,3y5140z9d1tafi1dkqp6inskmiwipi,9uBW4UOw,2020-0188,2020-06-04,09:36:34,10:00:17,NA,incomplete,196,gender,3,1,left,C_M_03.jpg,A_M_04.jpg,C_F_08.jpg,left,102.76500000129454,true,high,NA,NA,NA,NA,NA,NA,NA,false
9uBW4UOw,3kqc8jmjhf51pencp85cgosduim3h1,3y5140z9d1tafi1dkqp6inskmiwipi,9uBW4UOw,2020-0188,2020-06-04,09:36:34,10:00:17,NA,incomplete,197,gender,3,0,left,A_M_09.jpg,C_M_14.jpg,A_F_05.jpg,left,506.6649999988731,true,high,NA,NA,NA,NA,NA,NA,NA,false
9uBW4UOw,3kqc8jmjhf51pencp85cgosduim3h1,3y5140z9d1tafi1dkqp6inskmiwipi,9uBW4UOw,2020-0188,2020-06-04,09:36:34,10:00:17,NA,incomplete,198,gender,3,1,left,C_F_02.jpg,A_F_06.jpg,C_M_07.jpg,right,240.1100000005681,false,high,NA,NA,NA,NA,NA,NA,NA,false
9uBW4UOw,3kqc8jmjhf51pencp85cgosduim3h1,3y5140z9d1tafi1dkqp6inskmiwipi,9uBW4UOw,2020-0188,2020-06-04,09:36:34,10:00:17,NA,incomplete,199,gender,3,1,left,C_F_05.jpg,A_F_06.jpg,C_M_10.jpg,left,367.9499999997206,true,high,NA,NA,NA,NA,NA,NA,NA,false
9uBW4UOw,3kqc8jmjhf51pencp85cgosduim3h1,3y5140z9d1tafi1dkqp6inskmiwipi,9uBW4UOw,2020-0188,2020-06-04,09:36:34,10:00:17,NA,incomplete,200,race,2,0,right,A_M_16.jpg,C_M_02.jpg,A_F_15.jpg,left,156.18499999982305,false,high,NA,NA,NA,NA,NA,NA,NA,false
9uBW4UOw,3kqc8jmjhf51pencp85cgosduim3h1,3y5140z9d1tafi1dkqp6inskmiwipi,9uBW4UOw,2020-0188,2020-06-04,09:36:34,10:00:17,NA,incomplete,201,race,2,1,left,A_F_14.jpg,A_M_07.jpg,C_F_01.jpg,left,52.83000000054017,true,high,NA,NA,NA,NA,NA,NA,NA,false
9uBW4UOw,3kqc8jmjhf51pencp85cgosduim3h1,3y5140z9d1tafi1dkqp6inskmiwipi,9uBW4UOw,2020-0188,2020-06-04,09:36:34,10:00:17,NA,incomplete,202,race,2,1,right,C_F_08.jpg,A_F_16.jpg,C_M_07.jpg,right,133.7999999995809,true,high,NA,NA,NA,NA,NA,NA,NA,false
9uBW4UOw,3kqc8jmjhf51pencp85cgosduim3h1,3y5140z9d1tafi1dkqp6inskmiwipi,9uBW4UOw,2020-0188,2020-06-04,09:36:34,10:00:17,NA,incomplete,203,race,2,1,left,A_M_08.jpg,A_F_11.jpg,C_M_02.jpg,right,100.43500000028871,false,high,NA,NA,NA,NA,NA,NA,NA,false
9uBW4UOw,3kqc8jmjhf51pencp85cgosduim3h1,3y5140z9d1tafi1dkqp6inskmiwipi,9uBW4UOw,2020-0188,2020-06-04,09:36:34,10:00:17,NA,incomplete,204,race,2,1,left,A_M_09.jpg,A_F_13.jpg,C_M_05.jpg,right,277.3799999996554,false,high,NA,NA,NA,NA,NA,NA,NA,false
9uBW4UOw,3kqc8jmjhf51pencp85cgosduim3h1,3y5140z9d1tafi1dkqp6inskmiwipi,9uBW4UOw,2020-0188,2020-06-04,09:36:34,10:00:17,NA,incomplete,205,race,2,1,left,C_M_16.jpg,C_F_08.jpg,A_M_14.jpg,left,200.08500000019558,true,high,NA,NA,NA,NA,NA,NA,NA,false
9uBW4UOw,3kqc8jmjhf51pencp85cgosduim3h1,3y5140z9d1tafi1dkqp6inskmiwipi,9uBW4UOw,2020-0188,2020-06-04,09:36:34,10:00:17,NA,incomplete,206,race,2,0,right,A_M_01.jpg,C_M_04.jpg,A_F_06.jpg,right,264.6299999996554,true,high,NA,NA,NA,NA,NA,NA,NA,false
9uBW4UOw,3kqc8jmjhf51pencp85cgosduim3h1,3y5140z9d1tafi1dkqp6inskmiwipi,9uBW4UOw,2020-0188,2020-06-04,09:36:34,10:00:17,NA,incomplete,207,race,2,1,right,C_M_08.jpg,A_M_16.jpg,C_F_11.jpg,left,53.65499999956228,false,high,NA,NA,NA,NA,NA,NA,NA,false
9uBW4UOw,3kqc8jmjhf51pencp85cgosduim3h1,3y5140z9d1tafi1dkqp6inskmiwipi,9uBW4UOw,2020-0188,2020-06-04,09:36:34,10:00:17,NA,incomplete,208,race,2,1,left,C_F_07.jpg,C_M_14.jpg,A_F_04.jpg,left,96.16500000073574,true,high,NA,NA,NA,NA,NA,NA,NA,false
9uBW4UOw,3kqc8jmjhf51pencp85cgosduim3h1,3y5140z9d1tafi1dkqp6inskmiwipi,9uBW4UOw,2020-0188,2020-06-04,09:36:34,10:00:17,NA,incomplete,209,race,2,0,left,C_F_08.jpg,C_M_10.jpg,A_F_01.jpg,left,25.475000000325963,true,high,NA,NA,NA,NA,NA,NA,NA,false
9uBW4UOw,3kqc8jmjhf51pencp85cgosduim3h1,3y5140z9d1tafi1dkqp6inskmiwipi,9uBW4UOw,2020-0188,2020-06-04,09:36:34,10:00:17,NA,incomplete,210,race,2,1,left,A_F_08.jpg,A_M_05.jpg,C_F_04.jpg,left,189.2499999993015,true,high,NA,NA,NA,NA,NA,NA,NA,false
9uBW4UOw,3kqc8jmjhf51pencp85cgosduim3h1,3y5140z9d1tafi1dkqp6inskmiwipi,9uBW4UOw,2020-0188,2020-06-04,09:36:34,10:00:17,NA,incomplete,211,race,2,1,left,A_F_15.jpg,A_M_02.jpg,C_F_05.jpg,left,240.28999999980442,true,high,NA,NA,NA,NA,NA,NA,NA,false
9uBW4UOw,3kqc8jmjhf51pencp85cgosduim3h1,3y5140z9d1tafi1dkqp6inskmiwipi,9uBW4UOw,2020-0188,2020-06-04,09:36:34,10:00:17,NA,incomplete,212,race,2,1,left,C_M_01.jpg,C_F_08.jpg,A_M_06.jpg,left,203.88999999896623,true,high,NA,NA,NA,NA,NA,NA,NA,false
9uBW4UOw,3kqc8jmjhf51pencp85cgosduim3h1,3y5140z9d1tafi1dkqp6inskmiwipi,9uBW4UOw,2020-0188,2020-06-04,09:36:34,10:00:17,NA,incomplete,213,race,2,1,left,C_F_15.jpg,C_M_01.jpg,A_F_10.jpg,left,448.7349999998696,true,high,NA,NA,NA,NA,NA,NA,NA,false
9uBW4UOw,3kqc8jmjhf51pencp85cgosduim3h1,3y5140z9d1tafi1dkqp6inskmiwipi,9uBW4UOw,2020-0188,2020-06-04,09:36:34,10:00:17,NA,incomplete,214,race,2,0,left,C_F_08.jpg,C_M_02.jpg,A_F_07.jpg,left,1040.6499999992084,true,high,NA,NA,NA,NA,NA,NA,NA,false
9uBW4UOw,3kqc8jmjhf51pencp85cgosduim3h1,3y5140z9d1tafi1dkqp6inskmiwipi,9uBW4UOw,2020-0188,2020-06-04,09:36:34,10:00:17,NA,incomplete,215,race,2,1,left,C_F_08.jpg,C_M_03.jpg,A_F_13.jpg,right,1174.269999999553,false,high,NA,NA,NA,NA,NA,NA,NA,false
9uBW4UOw,3kqc8jmjhf51pencp85cgosduim3h1,3y5140z9d1tafi1dkqp6inskmiwipi,9uBW4UOw,2020-0188,2020-06-04,09:36:34,10:00:17,NA,incomplete,216,race,2,1,right,A_F_03.jpg,C_F_11.jpg,A_M_01.jpg,left,5.12999999942258,false,high,NA,NA,NA,NA,NA,NA,NA,false
9uBW4UOw,3kqc8jmjhf51pencp85cgosduim3h1,3y5140z9d1tafi1dkqp6inskmiwipi,9uBW4UOw,2020-0188,2020-06-04,09:36:34,10:00:17,NA,incomplete,217,race,2,1,left,A_F_06.jpg,A_M_16.jpg,C_F_13.jpg,left,254.4500000004191,true,high,NA,NA,NA,NA,NA,NA,NA,false
9uBW4UOw,3kqc8jmjhf51pencp85cgosduim3h1,3y5140z9d1tafi1dkqp6inskmiwipi,9uBW4UOw,2020-0188,2020-06-04,09:36:34,10:00:17,NA,incomplete,218,race,2,1,left,C_F_09.jpg,C_M_05.jpg,A_F_03.jpg,left,355.62500000023283,true,high,NA,NA,NA,NA,NA,NA,NA,false
9uBW4UOw,3kqc8jmjhf51pencp85cgosduim3h1,3y5140z9d1tafi1dkqp6inskmiwipi,9uBW4UOw,2020-0188,2020-06-04,09:36:34,10:00:17,NA,incomplete,219,race,2,1,right,C_M_12.jpg,A_M_15.jpg,C_F_04.jpg,left,253.73500000033528,false,high,NA,NA,NA,NA,NA,NA,NA,false
9uBW4UOw,3kqc8jmjhf51pencp85cgosduim3h1,3y5140z9d1tafi1dkqp6inskmiwipi,9uBW4UOw,2020-0188,2020-06-04,09:36:34,10:00:17,NA,incomplete,220,gender,3,1,right,C_M_11.jpg,C_F_10.jpg,A_M_07.jpg,left,244.81999999983236,false,high,NA,NA,NA,NA,NA,NA,NA,false
9uBW4UOw,3kqc8jmjhf51pencp85cgosduim3h1,3y5140z9d1tafi1dkqp6inskmiwipi,9uBW4UOw,2020-0188,2020-06-04,09:36:34,10:00:17,NA,incomplete,221,gender,3,1,right,A_M_08.jpg,A_F_12.jpg,C_M_05.jpg,right,451.75,true,high,NA,NA,NA,NA,NA,NA,NA,false
9uBW4UOw,3kqc8jmjhf51pencp85cgosduim3h1,3y5140z9d1tafi1dkqp6inskmiwipi,9uBW4UOw,2020-0188,2020-06-04,09:36:34,10:00:17,NA,incomplete,222,gender,3,1,right,A_F_13.jpg,A_M_14.jpg,C_F_15.jpg,right,82.91499999910593,true,high,NA,NA,NA,NA,NA,NA,NA,false
9uBW4UOw,3kqc8jmjhf51pencp85cgosduim3h1,3y5140z9d1tafi1dkqp6inskmiwipi,9uBW4UOw,2020-0188,2020-06-04,09:36:34,10:00:17,NA,incomplete,223,gender,3,1,right,A_F_07.jpg,A_M_06.jpg,C_F_16.jpg,right,302.2199999995064,true,high,NA,NA,NA,NA,NA,NA,NA,false
9uBW4UOw,3kqc8jmjhf51pencp85cgosduim3h1,3y5140z9d1tafi1dkqp6inskmiwipi,9uBW4UOw,2020-0188,2020-06-04,09:36:34,10:00:17,NA,incomplete,224,gender,3,1,right,C_F_09.jpg,C_M_03.jpg,A_F_12.jpg,right,386.5549999992363,true,high,NA,NA,NA,NA,NA,NA,NA,false
9uBW4UOw,3kqc8jmjhf51pencp85cgosduim3h1,3y5140z9d1tafi1dkqp6inskmiwipi,9uBW4UOw,2020-0188,2020-06-04,09:36:34,10:00:17,NA,incomplete,225,gender,3,1,left,C_M_13.jpg,A_M_03.jpg,C_F_05.jpg,right,479.76000000024214,false,high,NA,NA,NA,NA,NA,NA,NA,false
9uBW4UOw,3kqc8jmjhf51pencp85cgosduim3h1,3y5140z9d1tafi1dkqp6inskmiwipi,9uBW4UOw,2020-0188,2020-06-04,09:36:34,10:00:17,NA,incomplete,226,gender,3,1,left,A_M_15.jpg,C_M_05.jpg,A_F_11.jpg,none,0,false,high,NA,NA,NA,NA,NA,NA,NA,false
9uBW4UOw,3kqc8jmjhf51pencp85cgosduim3h1,3y5140z9d1tafi1dkqp6inskmiwipi,9uBW4UOw,2020-0188,2020-06-04,09:36:34,10:00:17,NA,incomplete,227,gender,3,1,right,C_F_14.jpg,C_M_03.jpg,A_F_04.jpg,right,69.75500000058673,true,high,NA,NA,NA,NA,NA,NA,NA,false
9uBW4UOw,3kqc8jmjhf51pencp85cgosduim3h1,3y5140z9d1tafi1dkqp6inskmiwipi,9uBW4UOw,2020-0188,2020-06-04,09:36:34,10:00:17,NA,incomplete,228,gender,3,1,right,A_M_12.jpg,A_F_01.jpg,C_M_05.jpg,right,88.56499999994412,true,high,NA,NA,NA,NA,NA,NA,NA,false
9uBW4UOw,3kqc8jmjhf51pencp85cgosduim3h1,3y5140z9d1tafi1dkqp6inskmiwipi,9uBW4UOw,2020-0188,2020-06-04,09:36:34,10:00:17,NA,incomplete,229,gender,3,1,left,C_M_09.jpg,A_M_03.jpg,C_F_12.jpg,right,75.80500000040047,false,high,NA,NA,NA,NA,NA,NA,NA,false
9uBW4UOw,3kqc8jmjhf51pencp85cgosduim3h1,3y5140z9d1tafi1dkqp6inskmiwipi,9uBW4UOw,2020-0188,2020-06-04,09:36:34,10:00:17,NA,incomplete,230,gender,3,1,left,A_M_12.jpg,C_M_06.jpg,A_F_01.jpg,left,344.60000000032596,true,high,NA,NA,NA,NA,NA,NA,NA,false
9uBW4UOw,3kqc8jmjhf51pencp85cgosduim3h1,3y5140z9d1tafi1dkqp6inskmiwipi,9uBW4UOw,2020-0188,2020-06-04,09:36:34,10:00:17,NA,incomplete,231,gender,3,1,right,A_F_07.jpg,A_M_15.jpg,C_F_08.jpg,left,90.28500000038184,false,high,NA,NA,NA,NA,NA,NA,NA,false
9uBW4UOw,3kqc8jmjhf51pencp85cgosduim3h1,3y5140z9d1tafi1dkqp6inskmiwipi,9uBW4UOw,2020-0188,2020-06-04,09:36:34,10:00:17,NA,incomplete,232,gender,3,1,right,A_M_10.jpg,A_F_14.jpg,C_M_04.jpg,right,340.465000001248,true,high,NA,NA,NA,NA,NA,NA,NA,false
9uBW4UOw,3kqc8jmjhf51pencp85cgosduim3h1,3y5140z9d1tafi1dkqp6inskmiwipi,9uBW4UOw,2020-0188,2020-06-04,09:36:34,10:00:17,NA,incomplete,233,gender,3,0,right,C_M_03.jpg,C_F_13.jpg,A_M_06.jpg,right,280.5000000009313,true,high,NA,NA,NA,NA,NA,NA,NA,false
9uBW4UOw,3kqc8jmjhf51pencp85cgosduim3h1,3y5140z9d1tafi1dkqp6inskmiwipi,9uBW4UOw,2020-0188,2020-06-04,09:36:34,10:00:17,NA,incomplete,234,gender,3,1,right,A_M_07.jpg,A_F_09.jpg,C_M_08.jpg,left,471.35999999940395,false,high,NA,NA,NA,NA,NA,NA,NA,false
9uBW4UOw,3kqc8jmjhf51pencp85cgosduim3h1,3y5140z9d1tafi1dkqp6inskmiwipi,9uBW4UOw,2020-0188,2020-06-04,09:36:34,10:00:17,NA,incomplete,235,gender,3,1,left,A_M_13.jpg,C_M_11.jpg,A_F_03.jpg,left,534.7949999994598,true,high,NA,NA,NA,NA,NA,NA,NA,false
9uBW4UOw,3kqc8jmjhf51pencp85cgosduim3h1,3y5140z9d1tafi1dkqp6inskmiwipi,9uBW4UOw,2020-0188,2020-06-04,09:36:34,10:00:17,NA,incomplete,236,gender,3,1,left,A_M_15.jpg,C_M_01.jpg,A_F_08.jpg,left,130.910000001546,true,high,NA,NA,NA,NA,NA,NA,NA,false
9uBW4UOw,3kqc8jmjhf51pencp85cgosduim3h1,3y5140z9d1tafi1dkqp6inskmiwipi,9uBW4UOw,2020-0188,2020-06-04,09:36:34,10:00:17,NA,incomplete,237,gender,3,1,left,A_F_13.jpg,C_F_12.jpg,A_M_02.jpg,left,231.16999999899417,true,high,NA,NA,NA,NA,NA,NA,NA,false
9uBW4UOw,3kqc8jmjhf51pencp85cgosduim3h1,3y5140z9d1tafi1dkqp6inskmiwipi,9uBW4UOw,2020-0188,2020-06-04,09:36:34,10:00:17,NA,incomplete,238,gender,3,1,right,A_M_10.jpg,A_F_07.jpg,C_M_06.jpg,left,332.2349999998696,false,high,NA,NA,NA,NA,NA,NA,NA,false
9uBW4UOw,3kqc8jmjhf51pencp85cgosduim3h1,3y5140z9d1tafi1dkqp6inskmiwipi,9uBW4UOw,2020-0188,2020-06-04,09:36:34,10:00:17,NA,incomplete,239,gender,3,1,right,A_M_15.jpg,A_F_06.jpg,C_M_07.jpg,left,18.354999999981374,false,high,NA,NA,NA,NA,NA,NA,NA,false
9uBW4UOw,3kqc8jmjhf51pencp85cgosduim3h1,3y5140z9d1tafi1dkqp6inskmiwipi,9uBW4UOw,2020-0188,2020-06-04,09:36:34,10:00:17,NA,NA,instruction example,number,NA,NA,NA,Purple_Star_Chess_3.jpg,Green_Plus_Grid_3.jpg,Red_Star_Stripes_4.jpg,NA,NA,NA,NA,NA,NA,NA,NA,NA,NA,NA,undefined
9uBW4UOw,3kqc8jmjhf51pencp85cgosduim3h1,3y5140z9d1tafi1dkqp6inskmiwipi,9uBW4UOw,2020-0188,2020-06-04,09:36:34,10:00:17,NA,NA,instruction example,number,NA,NA,NA,Green_Plus_Stripes_2.jpg,Blue_Plus_Dots_4.jpg,Purple_Star_Grid_2.jpg,NA,NA,NA,NA,NA,NA,NA,NA,NA,NA,NA,undefined
9uBW4UOw,3kqc8jmjhf51pencp85cgosduim3h1,3y5140z9d1tafi1dkqp6inskmiwipi,9uBW4UOw,2020-0188,2020-06-04,09:36:34,10:00:17,NA,NA,instruction example,number,NA,NA,NA,A_F_13.jpg,A_M_02.jpg,C_F_04.jpg,NA,NA,NA,NA,NA,NA,NA,NA,NA,NA,NA,undefined
9uBW4UOw,3kqc8jmjhf51pencp85cgosduim3h1,3y5140z9d1tafi1dkqp6inskmiwipi,9uBW4UOw,2020-0188,2020-06-04,09:36:34,10:00:17,NA,NA,instruction example,number,NA,NA,NA,A_F_12.jpg,C_F_13.jpg,A_M_04.jpg,NA,NA,NA,NA,NA,NA,NA,NA,NA,NA,NA,undefined
9uBW4UOw,3kqc8jmjhf51pencp85cgosduim3h1,3y5140z9d1tafi1dkqp6inskmiwipi,9uBW4UOw,2020-0188,2020-06-04,09:36:34,10:00:17,1405022.2350000003,1428654.2800000007,NA,NA,NA,NA,NA,NA,NA,NA,NA,NA,NA,NA,41,White/Caucasian,Male,WHITE,no,yes,no,undefined
