workerId,hitId,assignmentId,subject,studyid,exp_date,exp_start,exp_end,time_start,time_end,trial,type,sequence,reward_validity,answer,image_top,image_left,image_right,response,response_time,response_acc,volatility,practice
Uy7dHl7r,3ni0wfppjctpbx4ya2wphz5gism608,3ygxwbaf74uxdmtuuw1w4mjuikzc48,Uy7dHl7r,2020-0188,2020-06-04,16:46:23,17:02:55,NA,incomplete,0,color,0,1,right,Blue_Star_Stripes_2.jpg,Green_Star_Grid_1.jpg,Blue_Plus_Chess_4.jpg,left,777.5900000124238,false,NA,true
Uy7dHl7r,3ni0wfppjctpbx4ya2wphz5gism608,3ygxwbaf74uxdmtuuw1w4mjuikzc48,Uy7dHl7r,2020-0188,2020-06-04,16:46:23,17:02:55,NA,incomplete,1,color,0,0,left,Blue_Circle_Chess_1.jpg,Blue_Plus_Stripes_3.jpg,Red_Circle_Dots_4.jpg,left,836.3200000021607,true,NA,true
Uy7dHl7r,3ni0wfppjctpbx4ya2wphz5gism608,3ygxwbaf74uxdmtuuw1w4mjuikzc48,Uy7dHl7r,2020-0188,2020-06-04,16:46:23,17:02:55,NA,incomplete,2,color,0,0,left,Purple_Circle_Stripes_2.jpg,Purple_Triangle_Dots_4.jpg,Red_Circle_Grid_1.jpg,left,652.7699999860488,true,NA,true
Uy7dHl7r,3ni0wfppjctpbx4ya2wphz5gism608,3ygxwbaf74uxdmtuuw1w4mjuikzc48,Uy7dHl7r,2020-0188,2020-06-04,16:46:23,17:02:55,NA,incomplete,3,color,0,1,left,Purple_Circle_Grid_2.jpg,Purple_Star_Chess_3.jpg,Blue_Circle_Stripes_1.jpg,left,783.6250000400469,true,NA,true
Uy7dHl7r,3ni0wfppjctpbx4ya2wphz5gism608,3ygxwbaf74uxdmtuuw1w4mjuikzc48,Uy7dHl7r,2020-0188,2020-06-04,16:46:23,17:02:55,NA,incomplete,4,color,0,1,left,Purple_Plus_Stripes_4.jpg,Purple_Triangle_Dots_3.jpg,Blue_Plus_Grid_1.jpg,right,616.2000000476837,false,NA,true
Uy7dHl7r,3ni0wfppjctpbx4ya2wphz5gism608,3ygxwbaf74uxdmtuuw1w4mjuikzc48,Uy7dHl7r,2020-0188,2020-06-04,16:46:23,17:02:55,NA,incomplete,5,color,0,0,left,Green_Star_Grid_3.jpg,Green_Circle_Chess_1.jpg,Red_Star_Stripes_4.jpg,left,784.624999971129,true,NA,true
Uy7dHl7r,3ni0wfppjctpbx4ya2wphz5gism608,3ygxwbaf74uxdmtuuw1w4mjuikzc48,Uy7dHl7r,2020-0188,2020-06-04,16:46:23,17:02:55,NA,incomplete,6,color,0,0,left,Blue_Triangle_Grid_3.jpg,Blue_Circle_Dots_1.jpg,Red_Triangle_Chess_4.jpg,left,652.5249999831431,true,NA,true
Uy7dHl7r,3ni0wfppjctpbx4ya2wphz5gism608,3ygxwbaf74uxdmtuuw1w4mjuikzc48,Uy7dHl7r,2020-0188,2020-06-04,16:46:23,17:02:55,NA,incomplete,7,color,0,1,right,Red_Plus_Grid_4.jpg,Blue_Plus_Dots_1.jpg,Red_Star_Stripes_3.jpg,right,657.6299999724142,true,NA,true
Uy7dHl7r,3ni0wfppjctpbx4ya2wphz5gism608,3ygxwbaf74uxdmtuuw1w4mjuikzc48,Uy7dHl7r,2020-0188,2020-06-04,16:46:23,17:02:55,NA,incomplete,8,color,0,1,right,Red_Circle_Stripes_3.jpg,Purple_Circle_Grid_4.jpg,Red_Star_Chess_2.jpg,right,663.2100000279024,true,NA,true
Uy7dHl7r,3ni0wfppjctpbx4ya2wphz5gism608,3ygxwbaf74uxdmtuuw1w4mjuikzc48,Uy7dHl7r,2020-0188,2020-06-04,16:46:23,17:02:55,NA,incomplete,9,color,0,1,right,Purple_Plus_Chess_1.jpg,Green_Plus_Grid_3.jpg,Purple_Star_Dots_4.jpg,right,779.3599999858998,true,NA,true
Uy7dHl7r,3ni0wfppjctpbx4ya2wphz5gism608,3ygxwbaf74uxdmtuuw1w4mjuikzc48,Uy7dHl7r,2020-0188,2020-06-04,16:46:23,17:02:55,NA,incomplete,10,color,0,1,right,Green_Triangle_Grid_2.jpg,Blue_Triangle_Stripes_3.jpg,Green_Star_Chess_1.jpg,right,613.5450000292622,true,NA,true
Uy7dHl7r,3ni0wfppjctpbx4ya2wphz5gism608,3ygxwbaf74uxdmtuuw1w4mjuikzc48,Uy7dHl7r,2020-0188,2020-06-04,16:46:23,17:02:55,NA,incomplete,11,color,0,1,left,Green_Triangle_Grid_4.jpg,Green_Circle_Dots_3.jpg,Purple_Triangle_Chess_1.jpg,left,541.0549999796785,true,NA,true
Uy7dHl7r,3ni0wfppjctpbx4ya2wphz5gism608,3ygxwbaf74uxdmtuuw1w4mjuikzc48,Uy7dHl7r,2020-0188,2020-06-04,16:46:23,17:02:55,NA,incomplete,12,color,0,1,right,Green_Circle_Dots_4.jpg,Purple_Circle_Chess_2.jpg,Green_Plus_Grid_3.jpg,right,441.724999982398,true,NA,true
Uy7dHl7r,3ni0wfppjctpbx4ya2wphz5gism608,3ygxwbaf74uxdmtuuw1w4mjuikzc48,Uy7dHl7r,2020-0188,2020-06-04,16:46:23,17:02:55,NA,incomplete,13,color,0,1,left,Blue_Star_Grid_1.jpg,Blue_Circle_Chess_3.jpg,Red_Star_Stripes_2.jpg,left,561.0149999847636,true,NA,true
Uy7dHl7r,3ni0wfppjctpbx4ya2wphz5gism608,3ygxwbaf74uxdmtuuw1w4mjuikzc48,Uy7dHl7r,2020-0188,2020-06-04,16:46:23,17:02:55,NA,incomplete,14,color,0,1,right,Blue_Triangle_Stripes_2.jpg,Purple_Triangle_Dots_1.jpg,Blue_Circle_Chess_3.jpg,right,486.49500001920387,true,NA,true
Uy7dHl7r,3ni0wfppjctpbx4ya2wphz5gism608,3ygxwbaf74uxdmtuuw1w4mjuikzc48,Uy7dHl7r,2020-0188,2020-06-04,16:46:23,17:02:55,NA,incomplete,15,color,0,1,left,Blue_Circle_Chess_1.jpg,Blue_Plus_Stripes_4.jpg,Purple_Circle_Grid_2.jpg,left,893.7900000018999,true,NA,true
Uy7dHl7r,3ni0wfppjctpbx4ya2wphz5gism608,3ygxwbaf74uxdmtuuw1w4mjuikzc48,Uy7dHl7r,2020-0188,2020-06-04,16:46:23,17:02:55,NA,incomplete,16,color,0,0,left,Red_Triangle_Chess_3.jpg,Red_Plus_Dots_4.jpg,Purple_Triangle_Stripes_2.jpg,left,597.0049999887124,true,NA,true
Uy7dHl7r,3ni0wfppjctpbx4ya2wphz5gism608,3ygxwbaf74uxdmtuuw1w4mjuikzc48,Uy7dHl7r,2020-0188,2020-06-04,16:46:23,17:02:55,NA,incomplete,17,color,0,1,left,Blue_Plus_Dots_1.jpg,Blue_Circle_Chess_4.jpg,Purple_Plus_Grid_3.jpg,left,569.7800000198185,true,NA,true
Uy7dHl7r,3ni0wfppjctpbx4ya2wphz5gism608,3ygxwbaf74uxdmtuuw1w4mjuikzc48,Uy7dHl7r,2020-0188,2020-06-04,16:46:23,17:02:55,NA,incomplete,18,color,0,1,left,Green_Triangle_Grid_1.jpg,Green_Circle_Chess_3.jpg,Purple_Triangle_Stripes_2.jpg,left,633.3600000361912,true,NA,true
Uy7dHl7r,3ni0wfppjctpbx4ya2wphz5gism608,3ygxwbaf74uxdmtuuw1w4mjuikzc48,Uy7dHl7r,2020-0188,2020-06-04,16:46:23,17:02:55,NA,incomplete,19,color,0,1,right,Purple_Plus_Grid_1.jpg,Green_Plus_Stripes_4.jpg,Purple_Circle_Dots_3.jpg,right,644.1549999872223,true,NA,true
Uy7dHl7r,3ni0wfppjctpbx4ya2wphz5gism608,3ygxwbaf74uxdmtuuw1w4mjuikzc48,Uy7dHl7r,2020-0188,2020-06-04,16:46:23,17:02:55,NA,incomplete,20,shape,1,0,left,Purple_Plus_Chess_4.jpg,Blue_Plus_Stripes_3.jpg,Purple_Circle_Dots_1.jpg,right,580.2849999745376,false,NA,true
Uy7dHl7r,3ni0wfppjctpbx4ya2wphz5gism608,3ygxwbaf74uxdmtuuw1w4mjuikzc48,Uy7dHl7r,2020-0188,2020-06-04,16:46:23,17:02:55,NA,incomplete,21,shape,1,1,left,Red_Plus_Dots_2.jpg,Purple_Plus_Chess_4.jpg,Red_Star_Grid_3.jpg,left,658.144999993965,true,NA,true
Uy7dHl7r,3ni0wfppjctpbx4ya2wphz5gism608,3ygxwbaf74uxdmtuuw1w4mjuikzc48,Uy7dHl7r,2020-0188,2020-06-04,16:46:23,17:02:55,NA,incomplete,22,shape,1,1,right,Green_Star_Dots_4.jpg,Green_Plus_Grid_1.jpg,Red_Star_Stripes_2.jpg,right,642.6600000122562,true,NA,true
Uy7dHl7r,3ni0wfppjctpbx4ya2wphz5gism608,3ygxwbaf74uxdmtuuw1w4mjuikzc48,Uy7dHl7r,2020-0188,2020-06-04,16:46:23,17:02:55,NA,incomplete,23,shape,1,1,right,Purple_Triangle_Grid_3.jpg,Purple_Circle_Chess_2.jpg,Green_Triangle_Stripes_1.jpg,right,594.9600000167266,true,NA,true
Uy7dHl7r,3ni0wfppjctpbx4ya2wphz5gism608,3ygxwbaf74uxdmtuuw1w4mjuikzc48,Uy7dHl7r,2020-0188,2020-06-04,16:46:23,17:02:55,NA,incomplete,24,shape,1,1,right,Purple_Circle_Stripes_3.jpg,Purple_Plus_Grid_2.jpg,Red_Circle_Dots_4.jpg,right,621.8300000182353,true,NA,true
Uy7dHl7r,3ni0wfppjctpbx4ya2wphz5gism608,3ygxwbaf74uxdmtuuw1w4mjuikzc48,Uy7dHl7r,2020-0188,2020-06-04,16:46:23,17:02:55,NA,incomplete,25,shape,1,1,right,Purple_Plus_Chess_2.jpg,Purple_Star_Dots_4.jpg,Red_Plus_Grid_3.jpg,right,549.0349999745376,true,NA,true
Uy7dHl7r,3ni0wfppjctpbx4ya2wphz5gism608,3ygxwbaf74uxdmtuuw1w4mjuikzc48,Uy7dHl7r,2020-0188,2020-06-04,16:46:23,17:02:55,NA,incomplete,26,shape,1,1,right,Blue_Plus_Dots_2.jpg,Blue_Circle_Grid_1.jpg,Green_Plus_Chess_3.jpg,right,488.08999999891967,true,NA,true
Uy7dHl7r,3ni0wfppjctpbx4ya2wphz5gism608,3ygxwbaf74uxdmtuuw1w4mjuikzc48,Uy7dHl7r,2020-0188,2020-06-04,16:46:23,17:02:55,NA,incomplete,27,shape,1,1,left,Purple_Circle_Grid_4.jpg,Blue_Circle_Chess_2.jpg,Purple_Triangle_Dots_3.jpg,right,640.8400000073016,false,NA,true
Uy7dHl7r,3ni0wfppjctpbx4ya2wphz5gism608,3ygxwbaf74uxdmtuuw1w4mjuikzc48,Uy7dHl7r,2020-0188,2020-06-04,16:46:23,17:02:55,NA,incomplete,28,shape,1,1,right,Blue_Plus_Stripes_4.jpg,Blue_Star_Dots_3.jpg,Red_Plus_Chess_2.jpg,right,668.2199999922886,true,NA,true
Uy7dHl7r,3ni0wfppjctpbx4ya2wphz5gism608,3ygxwbaf74uxdmtuuw1w4mjuikzc48,Uy7dHl7r,2020-0188,2020-06-04,16:46:23,17:02:55,NA,incomplete,29,shape,1,1,right,Purple_Star_Chess_4.jpg,Purple_Plus_Grid_2.jpg,Green_Star_Dots_1.jpg,right,649.7550000203773,true,NA,true
Uy7dHl7r,3ni0wfppjctpbx4ya2wphz5gism608,3ygxwbaf74uxdmtuuw1w4mjuikzc48,Uy7dHl7r,2020-0188,2020-06-04,16:46:23,17:02:55,NA,incomplete,30,shape,1,1,right,Red_Circle_Chess_3.jpg,Red_Triangle_Grid_4.jpg,Blue_Circle_Dots_2.jpg,right,523.8649999955669,true,NA,true
Uy7dHl7r,3ni0wfppjctpbx4ya2wphz5gism608,3ygxwbaf74uxdmtuuw1w4mjuikzc48,Uy7dHl7r,2020-0188,2020-06-04,16:46:23,17:02:55,NA,incomplete,31,shape,1,0,right,Green_Circle_Stripes_1.jpg,Green_Star_Dots_4.jpg,Red_Circle_Grid_3.jpg,right,891.6599999647588,true,NA,true
Uy7dHl7r,3ni0wfppjctpbx4ya2wphz5gism608,3ygxwbaf74uxdmtuuw1w4mjuikzc48,Uy7dHl7r,2020-0188,2020-06-04,16:46:23,17:02:55,NA,incomplete,32,shape,1,1,left,Purple_Plus_Stripes_4.jpg,Green_Plus_Dots_1.jpg,Purple_Star_Chess_2.jpg,left,790.0299999746494,true,NA,true
Uy7dHl7r,3ni0wfppjctpbx4ya2wphz5gism608,3ygxwbaf74uxdmtuuw1w4mjuikzc48,Uy7dHl7r,2020-0188,2020-06-04,16:46:23,17:02:55,NA,incomplete,33,shape,1,1,left,Red_Triangle_Dots_3.jpg,Purple_Triangle_Chess_4.jpg,Red_Circle_Stripes_1.jpg,left,690.7600000267848,true,NA,true
Uy7dHl7r,3ni0wfppjctpbx4ya2wphz5gism608,3ygxwbaf74uxdmtuuw1w4mjuikzc48,Uy7dHl7r,2020-0188,2020-06-04,16:46:23,17:02:55,NA,incomplete,34,shape,1,1,right,Green_Plus_Grid_4.jpg,Green_Circle_Chess_3.jpg,Blue_Plus_Dots_1.jpg,right,711.0549999633804,true,NA,true
Uy7dHl7r,3ni0wfppjctpbx4ya2wphz5gism608,3ygxwbaf74uxdmtuuw1w4mjuikzc48,Uy7dHl7r,2020-0188,2020-06-04,16:46:23,17:02:55,NA,incomplete,35,shape,1,0,left,Red_Plus_Stripes_2.jpg,Green_Plus_Grid_3.jpg,Red_Triangle_Dots_1.jpg,left,1286.4150000386871,true,NA,true
Uy7dHl7r,3ni0wfppjctpbx4ya2wphz5gism608,3ygxwbaf74uxdmtuuw1w4mjuikzc48,Uy7dHl7r,2020-0188,2020-06-04,16:46:23,17:02:55,NA,incomplete,36,shape,1,1,left,Blue_Triangle_Dots_4.jpg,Green_Triangle_Stripes_1.jpg,Blue_Plus_Grid_2.jpg,left,765.5050000175834,true,NA,true
Uy7dHl7r,3ni0wfppjctpbx4ya2wphz5gism608,3ygxwbaf74uxdmtuuw1w4mjuikzc48,Uy7dHl7r,2020-0188,2020-06-04,16:46:23,17:02:55,NA,incomplete,37,shape,1,1,left,Green_Triangle_Chess_1.jpg,Red_Triangle_Grid_4.jpg,Green_Circle_Stripes_2.jpg,left,988.5849999845959,true,NA,true
Uy7dHl7r,3ni0wfppjctpbx4ya2wphz5gism608,3ygxwbaf74uxdmtuuw1w4mjuikzc48,Uy7dHl7r,2020-0188,2020-06-04,16:46:23,17:02:55,NA,incomplete,38,shape,1,1,left,Blue_Circle_Stripes_2.jpg,Green_Circle_Grid_3.jpg,Blue_Plus_Dots_1.jpg,left,633.7099999655038,true,NA,true
Uy7dHl7r,3ni0wfppjctpbx4ya2wphz5gism608,3ygxwbaf74uxdmtuuw1w4mjuikzc48,Uy7dHl7r,2020-0188,2020-06-04,16:46:23,17:02:55,NA,incomplete,39,shape,1,1,right,Purple_Triangle_Stripes_2.jpg,Purple_Circle_Dots_4.jpg,Red_Triangle_Grid_3.jpg,right,813.6850000009872,true,NA,true
Uy7dHl7r,3ni0wfppjctpbx4ya2wphz5gism608,3ygxwbaf74uxdmtuuw1w4mjuikzc48,Uy7dHl7r,2020-0188,2020-06-04,16:46:23,17:02:55,NA,incomplete,0,color,0,1,left,Blue_Circle_Chess_2.jpg,Blue_Triangle_Dots_1.jpg,Red_Circle_Grid_4.jpg,right,1790.415000054054,false,low,false
Uy7dHl7r,3ni0wfppjctpbx4ya2wphz5gism608,3ygxwbaf74uxdmtuuw1w4mjuikzc48,Uy7dHl7r,2020-0188,2020-06-04,16:46:23,17:02:55,NA,incomplete,1,color,0,1,left,Red_Circle_Chess_4.jpg,Red_Plus_Dots_3.jpg,Blue_Circle_Stripes_1.jpg,left,1088.7199999997392,true,low,false
Uy7dHl7r,3ni0wfppjctpbx4ya2wphz5gism608,3ygxwbaf74uxdmtuuw1w4mjuikzc48,Uy7dHl7r,2020-0188,2020-06-04,16:46:23,17:02:55,NA,incomplete,2,color,0,0,right,Purple_Triangle_Grid_2.jpg,Blue_Triangle_Dots_4.jpg,Purple_Plus_Chess_1.jpg,right,708.3200000342913,true,low,false
Uy7dHl7r,3ni0wfppjctpbx4ya2wphz5gism608,3ygxwbaf74uxdmtuuw1w4mjuikzc48,Uy7dHl7r,2020-0188,2020-06-04,16:46:23,17:02:55,NA,incomplete,3,color,0,1,right,Blue_Circle_Chess_1.jpg,Green_Circle_Stripes_2.jpg,Blue_Plus_Dots_4.jpg,right,703.8850000244565,true,low,false
Uy7dHl7r,3ni0wfppjctpbx4ya2wphz5gism608,3ygxwbaf74uxdmtuuw1w4mjuikzc48,Uy7dHl7r,2020-0188,2020-06-04,16:46:23,17:02:55,NA,incomplete,4,color,0,1,left,Blue_Plus_Stripes_3.jpg,Blue_Circle_Chess_4.jpg,Green_Plus_Dots_2.jpg,left,709.9899999448098,true,low,false
Uy7dHl7r,3ni0wfppjctpbx4ya2wphz5gism608,3ygxwbaf74uxdmtuuw1w4mjuikzc48,Uy7dHl7r,2020-0188,2020-06-04,16:46:23,17:02:55,NA,incomplete,5,color,0,1,left,Blue_Star_Dots_4.jpg,Blue_Triangle_Grid_3.jpg,Purple_Star_Chess_2.jpg,left,377.8949999832548,true,low,false
Uy7dHl7r,3ni0wfppjctpbx4ya2wphz5gism608,3ygxwbaf74uxdmtuuw1w4mjuikzc48,Uy7dHl7r,2020-0188,2020-06-04,16:46:23,17:02:55,NA,incomplete,6,color,0,0,right,Green_Plus_Dots_4.jpg,Blue_Plus_Grid_3.jpg,Green_Triangle_Chess_2.jpg,left,620.1400000136346,false,low,false
Uy7dHl7r,3ni0wfppjctpbx4ya2wphz5gism608,3ygxwbaf74uxdmtuuw1w4mjuikzc48,Uy7dHl7r,2020-0188,2020-06-04,16:46:23,17:02:55,NA,incomplete,7,color,0,1,right,Purple_Triangle_Chess_2.jpg,Green_Triangle_Grid_3.jpg,Purple_Star_Stripes_4.jpg,right,546.8450000043958,true,low,false
Uy7dHl7r,3ni0wfppjctpbx4ya2wphz5gism608,3ygxwbaf74uxdmtuuw1w4mjuikzc48,Uy7dHl7r,2020-0188,2020-06-04,16:46:23,17:02:55,NA,incomplete,8,color,0,1,left,Purple_Plus_Grid_1.jpg,Purple_Star_Chess_2.jpg,Red_Plus_Stripes_4.jpg,left,390.5749999685213,true,low,false
Uy7dHl7r,3ni0wfppjctpbx4ya2wphz5gism608,3ygxwbaf74uxdmtuuw1w4mjuikzc48,Uy7dHl7r,2020-0188,2020-06-04,16:46:23,17:02:55,NA,incomplete,9,color,0,1,right,Red_Circle_Grid_4.jpg,Blue_Circle_Stripes_3.jpg,Red_Star_Dots_2.jpg,left,906.2450000201352,false,low,false
Uy7dHl7r,3ni0wfppjctpbx4ya2wphz5gism608,3ygxwbaf74uxdmtuuw1w4mjuikzc48,Uy7dHl7r,2020-0188,2020-06-04,16:46:23,17:02:55,NA,incomplete,10,color,0,1,right,Red_Triangle_Stripes_2.jpg,Blue_Triangle_Chess_4.jpg,Red_Star_Dots_1.jpg,right,810.2249999647029,true,low,false
Uy7dHl7r,3ni0wfppjctpbx4ya2wphz5gism608,3ygxwbaf74uxdmtuuw1w4mjuikzc48,Uy7dHl7r,2020-0188,2020-06-04,16:46:23,17:02:55,NA,incomplete,11,color,0,1,right,Red_Triangle_Stripes_3.jpg,Purple_Triangle_Dots_2.jpg,Red_Circle_Grid_4.jpg,right,474.64500000933185,true,low,false
Uy7dHl7r,3ni0wfppjctpbx4ya2wphz5gism608,3ygxwbaf74uxdmtuuw1w4mjuikzc48,Uy7dHl7r,2020-0188,2020-06-04,16:46:23,17:02:55,NA,incomplete,12,color,0,1,right,Purple_Plus_Dots_4.jpg,Red_Plus_Stripes_2.jpg,Purple_Star_Chess_3.jpg,right,510.06499998038635,true,low,false
Uy7dHl7r,3ni0wfppjctpbx4ya2wphz5gism608,3ygxwbaf74uxdmtuuw1w4mjuikzc48,Uy7dHl7r,2020-0188,2020-06-04,16:46:23,17:02:55,NA,incomplete,13,color,0,1,right,Purple_Circle_Grid_3.jpg,Blue_Circle_Stripes_2.jpg,Purple_Plus_Chess_4.jpg,right,411.68000001925975,true,low,false
Uy7dHl7r,3ni0wfppjctpbx4ya2wphz5gism608,3ygxwbaf74uxdmtuuw1w4mjuikzc48,Uy7dHl7r,2020-0188,2020-06-04,16:46:23,17:02:55,NA,incomplete,14,color,0,1,left,Red_Circle_Stripes_4.jpg,Red_Plus_Dots_1.jpg,Purple_Circle_Grid_2.jpg,left,767.4949999782257,true,low,false
Uy7dHl7r,3ni0wfppjctpbx4ya2wphz5gism608,3ygxwbaf74uxdmtuuw1w4mjuikzc48,Uy7dHl7r,2020-0188,2020-06-04,16:46:23,17:02:55,NA,incomplete,15,color,0,1,right,Blue_Star_Grid_2.jpg,Purple_Star_Chess_3.jpg,Blue_Circle_Dots_4.jpg,right,520.7750000408851,true,low,false
Uy7dHl7r,3ni0wfppjctpbx4ya2wphz5gism608,3ygxwbaf74uxdmtuuw1w4mjuikzc48,Uy7dHl7r,2020-0188,2020-06-04,16:46:23,17:02:55,NA,incomplete,16,color,0,1,left,Purple_Circle_Chess_2.jpg,Purple_Star_Stripes_3.jpg,Red_Circle_Dots_1.jpg,left,461.73999999882653,true,low,false
Uy7dHl7r,3ni0wfppjctpbx4ya2wphz5gism608,3ygxwbaf74uxdmtuuw1w4mjuikzc48,Uy7dHl7r,2020-0188,2020-06-04,16:46:23,17:02:55,NA,incomplete,17,color,0,1,left,Purple_Plus_Chess_1.jpg,Purple_Triangle_Stripes_3.jpg,Green_Plus_Grid_4.jpg,left,346.07500000856817,true,low,false
Uy7dHl7r,3ni0wfppjctpbx4ya2wphz5gism608,3ygxwbaf74uxdmtuuw1w4mjuikzc48,Uy7dHl7r,2020-0188,2020-06-04,16:46:23,17:02:55,NA,incomplete,18,color,0,1,right,Blue_Plus_Grid_1.jpg,Green_Plus_Dots_3.jpg,Blue_Circle_Stripes_4.jpg,right,461.4399999845773,true,low,false
Uy7dHl7r,3ni0wfppjctpbx4ya2wphz5gism608,3ygxwbaf74uxdmtuuw1w4mjuikzc48,Uy7dHl7r,2020-0188,2020-06-04,16:46:23,17:02:55,NA,incomplete,19,color,0,0,right,Blue_Star_Chess_1.jpg,Purple_Star_Stripes_2.jpg,Blue_Plus_Grid_3.jpg,right,581.7599999718368,true,low,false
Uy7dHl7r,3ni0wfppjctpbx4ya2wphz5gism608,3ygxwbaf74uxdmtuuw1w4mjuikzc48,Uy7dHl7r,2020-0188,2020-06-04,16:46:23,17:02:55,NA,incomplete,20,color,0,1,left,Red_Plus_Grid_4.jpg,Red_Triangle_Chess_2.jpg,Blue_Plus_Dots_3.jpg,right,696.6799999936484,false,low,false
Uy7dHl7r,3ni0wfppjctpbx4ya2wphz5gism608,3ygxwbaf74uxdmtuuw1w4mjuikzc48,Uy7dHl7r,2020-0188,2020-06-04,16:46:23,17:02:55,NA,incomplete,21,color,0,1,right,Red_Triangle_Stripes_2.jpg,Green_Triangle_Grid_4.jpg,Red_Star_Chess_1.jpg,right,453.21000000694767,true,low,false
Uy7dHl7r,3ni0wfppjctpbx4ya2wphz5gism608,3ygxwbaf74uxdmtuuw1w4mjuikzc48,Uy7dHl7r,2020-0188,2020-06-04,16:46:23,17:02:55,NA,incomplete,22,color,0,1,left,Purple_Star_Grid_3.jpg,Purple_Triangle_Chess_2.jpg,Blue_Star_Dots_1.jpg,left,601.3200000161305,true,low,false
Uy7dHl7r,3ni0wfppjctpbx4ya2wphz5gism608,3ygxwbaf74uxdmtuuw1w4mjuikzc48,Uy7dHl7r,2020-0188,2020-06-04,16:46:23,17:02:55,NA,incomplete,23,color,0,1,left,Blue_Circle_Grid_4.jpg,Blue_Star_Chess_3.jpg,Red_Circle_Stripes_2.jpg,left,643.8600000110455,true,low,false
Uy7dHl7r,3ni0wfppjctpbx4ya2wphz5gism608,3ygxwbaf74uxdmtuuw1w4mjuikzc48,Uy7dHl7r,2020-0188,2020-06-04,16:46:23,17:02:55,NA,incomplete,24,color,0,0,left,Purple_Plus_Chess_1.jpg,Purple_Star_Grid_2.jpg,Blue_Plus_Stripes_3.jpg,right,430.47000002115965,false,low,false
Uy7dHl7r,3ni0wfppjctpbx4ya2wphz5gism608,3ygxwbaf74uxdmtuuw1w4mjuikzc48,Uy7dHl7r,2020-0188,2020-06-04,16:46:23,17:02:55,NA,incomplete,25,color,0,1,right,Red_Circle_Dots_3.jpg,Green_Circle_Stripes_2.jpg,Red_Plus_Chess_1.jpg,left,591.5349999559112,false,low,false
Uy7dHl7r,3ni0wfppjctpbx4ya2wphz5gism608,3ygxwbaf74uxdmtuuw1w4mjuikzc48,Uy7dHl7r,2020-0188,2020-06-04,16:46:23,17:02:55,NA,incomplete,26,color,0,0,right,Red_Plus_Grid_1.jpg,Purple_Plus_Stripes_3.jpg,Red_Star_Dots_2.jpg,right,572.5700000184588,true,low,false
Uy7dHl7r,3ni0wfppjctpbx4ya2wphz5gism608,3ygxwbaf74uxdmtuuw1w4mjuikzc48,Uy7dHl7r,2020-0188,2020-06-04,16:46:23,17:02:55,NA,incomplete,27,color,0,1,right,Red_Star_Grid_2.jpg,Blue_Star_Stripes_1.jpg,Red_Circle_Dots_4.jpg,left,610.6399999698624,false,low,false
Uy7dHl7r,3ni0wfppjctpbx4ya2wphz5gism608,3ygxwbaf74uxdmtuuw1w4mjuikzc48,Uy7dHl7r,2020-0188,2020-06-04,16:46:23,17:02:55,NA,incomplete,28,color,0,0,right,Purple_Plus_Stripes_1.jpg,Blue_Plus_Dots_3.jpg,Purple_Triangle_Grid_2.jpg,right,695.7399999955669,true,low,false
Uy7dHl7r,3ni0wfppjctpbx4ya2wphz5gism608,3ygxwbaf74uxdmtuuw1w4mjuikzc48,Uy7dHl7r,2020-0188,2020-06-04,16:46:23,17:02:55,NA,incomplete,29,color,0,1,right,Red_Plus_Dots_1.jpg,Purple_Plus_Grid_2.jpg,Red_Triangle_Chess_3.jpg,right,998.215000028722,true,low,false
Uy7dHl7r,3ni0wfppjctpbx4ya2wphz5gism608,3ygxwbaf74uxdmtuuw1w4mjuikzc48,Uy7dHl7r,2020-0188,2020-06-04,16:46:23,17:02:55,NA,incomplete,30,shape,1,1,left,Green_Plus_Chess_1.jpg,Red_Plus_Grid_3.jpg,Green_Star_Dots_4.jpg,left,680.5900000035763,true,low,false
Uy7dHl7r,3ni0wfppjctpbx4ya2wphz5gism608,3ygxwbaf74uxdmtuuw1w4mjuikzc48,Uy7dHl7r,2020-0188,2020-06-04,16:46:23,17:02:55,NA,incomplete,31,shape,1,0,right,Blue_Circle_Stripes_1.jpg,Blue_Triangle_Chess_3.jpg,Green_Circle_Dots_4.jpg,left,1304.569999978412,false,low,false
Uy7dHl7r,3ni0wfppjctpbx4ya2wphz5gism608,3ygxwbaf74uxdmtuuw1w4mjuikzc48,Uy7dHl7r,2020-0188,2020-06-04,16:46:23,17:02:55,NA,incomplete,32,shape,1,1,right,Purple_Triangle_Grid_1.jpg,Purple_Plus_Chess_2.jpg,Blue_Triangle_Stripes_3.jpg,right,542.1700000297278,true,low,false
Uy7dHl7r,3ni0wfppjctpbx4ya2wphz5gism608,3ygxwbaf74uxdmtuuw1w4mjuikzc48,Uy7dHl7r,2020-0188,2020-06-04,16:46:23,17:02:55,NA,incomplete,33,shape,1,1,left,Blue_Triangle_Chess_1.jpg,Red_Triangle_Dots_2.jpg,Blue_Circle_Grid_4.jpg,right,486.97500000707805,false,low,false
Uy7dHl7r,3ni0wfppjctpbx4ya2wphz5gism608,3ygxwbaf74uxdmtuuw1w4mjuikzc48,Uy7dHl7r,2020-0188,2020-06-04,16:46:23,17:02:55,NA,incomplete,34,shape,1,0,right,Red_Star_Stripes_3.jpg,Red_Circle_Grid_2.jpg,Purple_Star_Dots_1.jpg,left,955.1250000367872,false,low,false
Uy7dHl7r,3ni0wfppjctpbx4ya2wphz5gism608,3ygxwbaf74uxdmtuuw1w4mjuikzc48,Uy7dHl7r,2020-0188,2020-06-04,16:46:23,17:02:55,NA,incomplete,35,shape,1,1,right,Green_Star_Stripes_3.jpg,Green_Triangle_Dots_1.jpg,Red_Star_Chess_2.jpg,right,635.5550000444055,true,low,false
Uy7dHl7r,3ni0wfppjctpbx4ya2wphz5gism608,3ygxwbaf74uxdmtuuw1w4mjuikzc48,Uy7dHl7r,2020-0188,2020-06-04,16:46:23,17:02:55,NA,incomplete,36,shape,1,1,right,Green_Star_Stripes_3.jpg,Green_Triangle_Chess_4.jpg,Purple_Star_Dots_2.jpg,left,809.8050000262447,false,low,false
Uy7dHl7r,3ni0wfppjctpbx4ya2wphz5gism608,3ygxwbaf74uxdmtuuw1w4mjuikzc48,Uy7dHl7r,2020-0188,2020-06-04,16:46:23,17:02:55,NA,incomplete,37,shape,1,1,right,Red_Circle_Dots_1.jpg,Red_Triangle_Chess_4.jpg,Purple_Circle_Stripes_2.jpg,right,726.2050000135787,true,low,false
Uy7dHl7r,3ni0wfppjctpbx4ya2wphz5gism608,3ygxwbaf74uxdmtuuw1w4mjuikzc48,Uy7dHl7r,2020-0188,2020-06-04,16:46:23,17:02:55,NA,incomplete,38,shape,1,1,left,Green_Triangle_Chess_2.jpg,Blue_Triangle_Grid_1.jpg,Green_Plus_Dots_4.jpg,right,687.9300000146031,false,low,false
Uy7dHl7r,3ni0wfppjctpbx4ya2wphz5gism608,3ygxwbaf74uxdmtuuw1w4mjuikzc48,Uy7dHl7r,2020-0188,2020-06-04,16:46:23,17:02:55,NA,incomplete,39,shape,1,1,right,Blue_Plus_Chess_1.jpg,Blue_Circle_Dots_3.jpg,Purple_Plus_Grid_4.jpg,left,782.0250000222586,false,low,false
Uy7dHl7r,3ni0wfppjctpbx4ya2wphz5gism608,3ygxwbaf74uxdmtuuw1w4mjuikzc48,Uy7dHl7r,2020-0188,2020-06-04,16:46:23,17:02:55,NA,incomplete,40,shape,1,1,right,Blue_Triangle_Chess_1.jpg,Blue_Plus_Dots_3.jpg,Red_Triangle_Grid_4.jpg,left,615.0349999661557,false,low,false
Uy7dHl7r,3ni0wfppjctpbx4ya2wphz5gism608,3ygxwbaf74uxdmtuuw1w4mjuikzc48,Uy7dHl7r,2020-0188,2020-06-04,16:46:23,17:02:55,NA,incomplete,41,shape,1,0,left,Blue_Plus_Chess_2.jpg,Green_Plus_Grid_1.jpg,Blue_Circle_Dots_4.jpg,left,704.5849999994971,true,low,false
Uy7dHl7r,3ni0wfppjctpbx4ya2wphz5gism608,3ygxwbaf74uxdmtuuw1w4mjuikzc48,Uy7dHl7r,2020-0188,2020-06-04,16:46:23,17:02:55,NA,incomplete,42,shape,1,1,right,Red_Triangle_Chess_4.jpg,Red_Plus_Dots_2.jpg,Purple_Triangle_Stripes_3.jpg,left,572.3099999595433,false,low,false
Uy7dHl7r,3ni0wfppjctpbx4ya2wphz5gism608,3ygxwbaf74uxdmtuuw1w4mjuikzc48,Uy7dHl7r,2020-0188,2020-06-04,16:46:23,17:02:55,NA,incomplete,43,shape,1,1,right,Purple_Triangle_Dots_4.jpg,Purple_Plus_Chess_1.jpg,Red_Triangle_Stripes_2.jpg,right,1268.900000024587,true,low,false
Uy7dHl7r,3ni0wfppjctpbx4ya2wphz5gism608,3ygxwbaf74uxdmtuuw1w4mjuikzc48,Uy7dHl7r,2020-0188,2020-06-04,16:46:23,17:02:55,NA,incomplete,44,shape,1,1,right,Blue_Star_Grid_1.jpg,Blue_Plus_Stripes_2.jpg,Purple_Star_Dots_3.jpg,right,733.4000000264496,true,low,false
Uy7dHl7r,3ni0wfppjctpbx4ya2wphz5gism608,3ygxwbaf74uxdmtuuw1w4mjuikzc48,Uy7dHl7r,2020-0188,2020-06-04,16:46:23,17:02:55,NA,incomplete,45,shape,1,0,left,Red_Plus_Dots_4.jpg,Purple_Plus_Chess_2.jpg,Red_Star_Stripes_3.jpg,left,651.5250000520609,true,low,false
Uy7dHl7r,3ni0wfppjctpbx4ya2wphz5gism608,3ygxwbaf74uxdmtuuw1w4mjuikzc48,Uy7dHl7r,2020-0188,2020-06-04,16:46:23,17:02:55,NA,incomplete,46,shape,1,1,right,Purple_Plus_Dots_1.jpg,Purple_Circle_Stripes_4.jpg,Green_Plus_Chess_2.jpg,left,469.08500004792586,false,low,false
Uy7dHl7r,3ni0wfppjctpbx4ya2wphz5gism608,3ygxwbaf74uxdmtuuw1w4mjuikzc48,Uy7dHl7r,2020-0188,2020-06-04,16:46:23,17:02:55,NA,incomplete,47,shape,1,1,right,Blue_Triangle_Chess_4.jpg,Blue_Circle_Stripes_3.jpg,Red_Triangle_Grid_2.jpg,right,732.9150000005029,true,low,false
Uy7dHl7r,3ni0wfppjctpbx4ya2wphz5gism608,3ygxwbaf74uxdmtuuw1w4mjuikzc48,Uy7dHl7r,2020-0188,2020-06-04,16:46:23,17:02:55,NA,incomplete,48,shape,1,1,left,Purple_Circle_Chess_1.jpg,Blue_Circle_Grid_3.jpg,Purple_Triangle_Dots_2.jpg,left,557.2600000305101,true,low,false
Uy7dHl7r,3ni0wfppjctpbx4ya2wphz5gism608,3ygxwbaf74uxdmtuuw1w4mjuikzc48,Uy7dHl7r,2020-0188,2020-06-04,16:46:23,17:02:55,NA,incomplete,49,shape,1,1,left,Purple_Plus_Stripes_4.jpg,Red_Plus_Chess_2.jpg,Purple_Star_Dots_1.jpg,right,544.2799999727868,false,low,false
Uy7dHl7r,3ni0wfppjctpbx4ya2wphz5gism608,3ygxwbaf74uxdmtuuw1w4mjuikzc48,Uy7dHl7r,2020-0188,2020-06-04,16:46:23,17:02:55,NA,incomplete,50,shape,1,0,left,Green_Star_Grid_3.jpg,Blue_Star_Chess_2.jpg,Green_Circle_Stripes_1.jpg,left,590.3099999995902,true,low,false
Uy7dHl7r,3ni0wfppjctpbx4ya2wphz5gism608,3ygxwbaf74uxdmtuuw1w4mjuikzc48,Uy7dHl7r,2020-0188,2020-06-04,16:46:23,17:02:55,NA,incomplete,51,shape,1,0,left,Red_Circle_Grid_2.jpg,Purple_Circle_Chess_3.jpg,Red_Plus_Stripes_4.jpg,right,513.2750000339001,false,low,false
Uy7dHl7r,3ni0wfppjctpbx4ya2wphz5gism608,3ygxwbaf74uxdmtuuw1w4mjuikzc48,Uy7dHl7r,2020-0188,2020-06-04,16:46:23,17:02:55,NA,incomplete,52,shape,1,0,right,Red_Plus_Grid_2.jpg,Red_Circle_Chess_1.jpg,Blue_Plus_Stripes_4.jpg,right,481.195000000298,true,low,false
Uy7dHl7r,3ni0wfppjctpbx4ya2wphz5gism608,3ygxwbaf74uxdmtuuw1w4mjuikzc48,Uy7dHl7r,2020-0188,2020-06-04,16:46:23,17:02:55,NA,incomplete,53,shape,1,0,right,Purple_Triangle_Dots_3.jpg,Purple_Star_Stripes_1.jpg,Red_Triangle_Grid_2.jpg,right,539.9249999900348,true,low,false
Uy7dHl7r,3ni0wfppjctpbx4ya2wphz5gism608,3ygxwbaf74uxdmtuuw1w4mjuikzc48,Uy7dHl7r,2020-0188,2020-06-04,16:46:23,17:02:55,NA,incomplete,54,shape,1,0,right,Red_Triangle_Chess_1.jpg,Red_Plus_Grid_4.jpg,Green_Triangle_Dots_2.jpg,left,635.8950000139885,false,low,false
Uy7dHl7r,3ni0wfppjctpbx4ya2wphz5gism608,3ygxwbaf74uxdmtuuw1w4mjuikzc48,Uy7dHl7r,2020-0188,2020-06-04,16:46:23,17:02:55,NA,incomplete,55,shape,1,1,right,Purple_Star_Grid_1.jpg,Purple_Plus_Stripes_3.jpg,Red_Star_Chess_4.jpg,right,695.8950000116602,true,low,false
Uy7dHl7r,3ni0wfppjctpbx4ya2wphz5gism608,3ygxwbaf74uxdmtuuw1w4mjuikzc48,Uy7dHl7r,2020-0188,2020-06-04,16:46:23,17:02:55,NA,incomplete,56,shape,1,0,right,Blue_Circle_Grid_4.jpg,Blue_Triangle_Chess_3.jpg,Red_Circle_Dots_1.jpg,left,454.87000001594424,false,low,false
Uy7dHl7r,3ni0wfppjctpbx4ya2wphz5gism608,3ygxwbaf74uxdmtuuw1w4mjuikzc48,Uy7dHl7r,2020-0188,2020-06-04,16:46:23,17:02:55,NA,incomplete,57,shape,1,1,left,Green_Star_Dots_4.jpg,Blue_Star_Stripes_3.jpg,Green_Triangle_Grid_2.jpg,right,620.085000002291,false,low,false
Uy7dHl7r,3ni0wfppjctpbx4ya2wphz5gism608,3ygxwbaf74uxdmtuuw1w4mjuikzc48,Uy7dHl7r,2020-0188,2020-06-04,16:46:23,17:02:55,NA,incomplete,58,shape,1,1,right,Red_Circle_Dots_3.jpg,Red_Star_Stripes_2.jpg,Purple_Circle_Chess_4.jpg,left,1341.2249999819323,false,low,false
Uy7dHl7r,3ni0wfppjctpbx4ya2wphz5gism608,3ygxwbaf74uxdmtuuw1w4mjuikzc48,Uy7dHl7r,2020-0188,2020-06-04,16:46:23,17:02:55,NA,incomplete,59,shape,1,0,right,Green_Plus_Stripes_4.jpg,Green_Circle_Grid_3.jpg,Blue_Plus_Chess_1.jpg,right,618.7150000478141,true,low,false
Uy7dHl7r,3ni0wfppjctpbx4ya2wphz5gism608,3ygxwbaf74uxdmtuuw1w4mjuikzc48,Uy7dHl7r,2020-0188,2020-06-04,16:46:23,17:02:55,NA,incomplete,60,color,0,0,left,Purple_Triangle_Stripes_4.jpg,Purple_Circle_Dots_1.jpg,Green_Triangle_Grid_2.jpg,left,1112.120000005234,true,low,false
Uy7dHl7r,3ni0wfppjctpbx4ya2wphz5gism608,3ygxwbaf74uxdmtuuw1w4mjuikzc48,Uy7dHl7r,2020-0188,2020-06-04,16:46:23,17:02:55,NA,incomplete,61,color,0,1,left,Red_Star_Chess_1.jpg,Red_Plus_Dots_2.jpg,Blue_Star_Stripes_4.jpg,left,486.8900000001304,true,low,false
Uy7dHl7r,3ni0wfppjctpbx4ya2wphz5gism608,3ygxwbaf74uxdmtuuw1w4mjuikzc48,Uy7dHl7r,2020-0188,2020-06-04,16:46:23,17:02:55,NA,incomplete,62,color,0,1,left,Green_Plus_Grid_1.jpg,Green_Triangle_Stripes_3.jpg,Purple_Plus_Dots_2.jpg,right,547.1249999827705,false,low,false
Uy7dHl7r,3ni0wfppjctpbx4ya2wphz5gism608,3ygxwbaf74uxdmtuuw1w4mjuikzc48,Uy7dHl7r,2020-0188,2020-06-04,16:46:23,17:02:55,NA,incomplete,63,color,0,1,left,Purple_Plus_Stripes_2.jpg,Purple_Circle_Grid_3.jpg,Green_Plus_Chess_1.jpg,left,510.59499999973923,true,low,false
Uy7dHl7r,3ni0wfppjctpbx4ya2wphz5gism608,3ygxwbaf74uxdmtuuw1w4mjuikzc48,Uy7dHl7r,2020-0188,2020-06-04,16:46:23,17:02:55,NA,incomplete,64,color,0,1,left,Purple_Circle_Grid_2.jpg,Purple_Triangle_Dots_4.jpg,Red_Circle_Chess_1.jpg,left,414.8249999852851,true,low,false
Uy7dHl7r,3ni0wfppjctpbx4ya2wphz5gism608,3ygxwbaf74uxdmtuuw1w4mjuikzc48,Uy7dHl7r,2020-0188,2020-06-04,16:46:23,17:02:55,NA,incomplete,65,color,0,1,right,Blue_Star_Stripes_2.jpg,Red_Star_Chess_3.jpg,Blue_Circle_Grid_1.jpg,right,594.8349999962375,true,low,false
Uy7dHl7r,3ni0wfppjctpbx4ya2wphz5gism608,3ygxwbaf74uxdmtuuw1w4mjuikzc48,Uy7dHl7r,2020-0188,2020-06-04,16:46:23,17:02:55,NA,incomplete,66,color,0,1,right,Green_Star_Grid_2.jpg,Purple_Star_Stripes_1.jpg,Green_Triangle_Chess_4.jpg,right,492.3900000285357,true,low,false
Uy7dHl7r,3ni0wfppjctpbx4ya2wphz5gism608,3ygxwbaf74uxdmtuuw1w4mjuikzc48,Uy7dHl7r,2020-0188,2020-06-04,16:46:23,17:02:55,NA,incomplete,67,color,0,1,right,Purple_Star_Chess_3.jpg,Red_Star_Stripes_4.jpg,Purple_Circle_Dots_2.jpg,right,534.4550000154413,true,low,false
Uy7dHl7r,3ni0wfppjctpbx4ya2wphz5gism608,3ygxwbaf74uxdmtuuw1w4mjuikzc48,Uy7dHl7r,2020-0188,2020-06-04,16:46:23,17:02:55,NA,incomplete,68,color,0,1,right,Red_Plus_Grid_4.jpg,Purple_Plus_Dots_3.jpg,Red_Triangle_Chess_1.jpg,right,554.4499999959953,true,low,false
Uy7dHl7r,3ni0wfppjctpbx4ya2wphz5gism608,3ygxwbaf74uxdmtuuw1w4mjuikzc48,Uy7dHl7r,2020-0188,2020-06-04,16:46:23,17:02:55,NA,incomplete,69,color,0,1,left,Blue_Triangle_Chess_1.jpg,Blue_Plus_Stripes_3.jpg,Green_Triangle_Grid_4.jpg,left,548.8499999628402,true,low,false
Uy7dHl7r,3ni0wfppjctpbx4ya2wphz5gism608,3ygxwbaf74uxdmtuuw1w4mjuikzc48,Uy7dHl7r,2020-0188,2020-06-04,16:46:23,17:02:55,NA,incomplete,70,color,0,1,right,Purple_Triangle_Stripes_4.jpg,Red_Triangle_Dots_2.jpg,Purple_Plus_Grid_1.jpg,right,431.6349999862723,true,low,false
Uy7dHl7r,3ni0wfppjctpbx4ya2wphz5gism608,3ygxwbaf74uxdmtuuw1w4mjuikzc48,Uy7dHl7r,2020-0188,2020-06-04,16:46:23,17:02:55,NA,incomplete,71,color,0,1,left,Purple_Circle_Grid_4.jpg,Purple_Star_Stripes_2.jpg,Red_Circle_Dots_1.jpg,left,485.58500001672655,true,low,false
Uy7dHl7r,3ni0wfppjctpbx4ya2wphz5gism608,3ygxwbaf74uxdmtuuw1w4mjuikzc48,Uy7dHl7r,2020-0188,2020-06-04,16:46:23,17:02:55,NA,incomplete,72,color,0,1,left,Blue_Circle_Grid_2.jpg,Blue_Triangle_Dots_1.jpg,Green_Circle_Chess_4.jpg,left,395.7799999625422,true,low,false
Uy7dHl7r,3ni0wfppjctpbx4ya2wphz5gism608,3ygxwbaf74uxdmtuuw1w4mjuikzc48,Uy7dHl7r,2020-0188,2020-06-04,16:46:23,17:02:55,NA,incomplete,73,color,0,1,right,Red_Plus_Dots_3.jpg,Blue_Plus_Grid_2.jpg,Red_Triangle_Chess_1.jpg,right,405.3449999773875,true,low,false
Uy7dHl7r,3ni0wfppjctpbx4ya2wphz5gism608,3ygxwbaf74uxdmtuuw1w4mjuikzc48,Uy7dHl7r,2020-0188,2020-06-04,16:46:23,17:02:55,NA,incomplete,74,color,0,1,left,Purple_Triangle_Stripes_2.jpg,Purple_Star_Chess_4.jpg,Blue_Triangle_Grid_1.jpg,left,381.28999999025837,true,low,false
Uy7dHl7r,3ni0wfppjctpbx4ya2wphz5gism608,3ygxwbaf74uxdmtuuw1w4mjuikzc48,Uy7dHl7r,2020-0188,2020-06-04,16:46:23,17:02:55,NA,incomplete,75,color,0,1,left,Red_Triangle_Chess_1.jpg,Red_Circle_Stripes_4.jpg,Green_Triangle_Grid_2.jpg,left,336.8100000079721,true,low,false
Uy7dHl7r,3ni0wfppjctpbx4ya2wphz5gism608,3ygxwbaf74uxdmtuuw1w4mjuikzc48,Uy7dHl7r,2020-0188,2020-06-04,16:46:23,17:02:55,NA,incomplete,76,color,0,1,right,Blue_Circle_Dots_3.jpg,Purple_Circle_Grid_1.jpg,Blue_Triangle_Chess_4.jpg,right,366.6150000062771,true,low,false
Uy7dHl7r,3ni0wfppjctpbx4ya2wphz5gism608,3ygxwbaf74uxdmtuuw1w4mjuikzc48,Uy7dHl7r,2020-0188,2020-06-04,16:46:23,17:02:55,NA,incomplete,77,color,0,1,left,Purple_Triangle_Grid_4.jpg,Purple_Circle_Stripes_2.jpg,Green_Triangle_Chess_1.jpg,left,418.7149999779649,true,low,false
Uy7dHl7r,3ni0wfppjctpbx4ya2wphz5gism608,3ygxwbaf74uxdmtuuw1w4mjuikzc48,Uy7dHl7r,2020-0188,2020-06-04,16:46:23,17:02:55,NA,incomplete,78,color,0,1,right,Red_Triangle_Stripes_4.jpg,Green_Triangle_Dots_3.jpg,Red_Plus_Chess_2.jpg,right,413.1649999762885,true,low,false
Uy7dHl7r,3ni0wfppjctpbx4ya2wphz5gism608,3ygxwbaf74uxdmtuuw1w4mjuikzc48,Uy7dHl7r,2020-0188,2020-06-04,16:46:23,17:02:55,NA,incomplete,79,color,0,1,left,Red_Plus_Stripes_1.jpg,Red_Circle_Chess_2.jpg,Blue_Plus_Grid_3.jpg,left,311.61999999312684,true,low,false
Uy7dHl7r,3ni0wfppjctpbx4ya2wphz5gism608,3ygxwbaf74uxdmtuuw1w4mjuikzc48,Uy7dHl7r,2020-0188,2020-06-04,16:46:23,17:02:55,NA,incomplete,80,color,0,1,right,Blue_Star_Grid_1.jpg,Red_Star_Dots_3.jpg,Blue_Plus_Chess_4.jpg,left,333.6450000060722,false,low,false
Uy7dHl7r,3ni0wfppjctpbx4ya2wphz5gism608,3ygxwbaf74uxdmtuuw1w4mjuikzc48,Uy7dHl7r,2020-0188,2020-06-04,16:46:23,17:02:55,NA,incomplete,81,color,0,1,right,Green_Star_Stripes_2.jpg,Purple_Star_Chess_4.jpg,Green_Plus_Dots_1.jpg,right,407.7849999885075,true,low,false
Uy7dHl7r,3ni0wfppjctpbx4ya2wphz5gism608,3ygxwbaf74uxdmtuuw1w4mjuikzc48,Uy7dHl7r,2020-0188,2020-06-04,16:46:23,17:02:55,NA,incomplete,82,color,0,1,right,Green_Star_Stripes_4.jpg,Purple_Star_Dots_2.jpg,Green_Circle_Chess_1.jpg,right,442.9099999833852,true,low,false
Uy7dHl7r,3ni0wfppjctpbx4ya2wphz5gism608,3ygxwbaf74uxdmtuuw1w4mjuikzc48,Uy7dHl7r,2020-0188,2020-06-04,16:46:23,17:02:55,NA,incomplete,83,color,0,1,left,Purple_Triangle_Grid_1.jpg,Purple_Circle_Chess_4.jpg,Green_Triangle_Stripes_3.jpg,left,378.76500003039837,true,low,false
Uy7dHl7r,3ni0wfppjctpbx4ya2wphz5gism608,3ygxwbaf74uxdmtuuw1w4mjuikzc48,Uy7dHl7r,2020-0188,2020-06-04,16:46:23,17:02:55,NA,incomplete,84,color,0,1,left,Blue_Triangle_Grid_4.jpg,Blue_Star_Chess_1.jpg,Red_Triangle_Stripes_3.jpg,left,430.724999983795,true,low,false
Uy7dHl7r,3ni0wfppjctpbx4ya2wphz5gism608,3ygxwbaf74uxdmtuuw1w4mjuikzc48,Uy7dHl7r,2020-0188,2020-06-04,16:46:23,17:02:55,NA,incomplete,85,color,0,1,left,Red_Triangle_Grid_4.jpg,Red_Plus_Stripes_1.jpg,Purple_Triangle_Chess_3.jpg,left,354.10000005504116,true,low,false
Uy7dHl7r,3ni0wfppjctpbx4ya2wphz5gism608,3ygxwbaf74uxdmtuuw1w4mjuikzc48,Uy7dHl7r,2020-0188,2020-06-04,16:46:23,17:02:55,NA,incomplete,86,color,0,1,right,Blue_Triangle_Stripes_4.jpg,Green_Triangle_Dots_1.jpg,Blue_Circle_Grid_3.jpg,right,361.3400000031106,true,low,false
Uy7dHl7r,3ni0wfppjctpbx4ya2wphz5gism608,3ygxwbaf74uxdmtuuw1w4mjuikzc48,Uy7dHl7r,2020-0188,2020-06-04,16:46:23,17:02:55,NA,incomplete,87,color,0,0,left,Purple_Plus_Dots_2.jpg,Purple_Star_Stripes_4.jpg,Blue_Plus_Grid_3.jpg,left,418.1850000168197,true,low,false
Uy7dHl7r,3ni0wfppjctpbx4ya2wphz5gism608,3ygxwbaf74uxdmtuuw1w4mjuikzc48,Uy7dHl7r,2020-0188,2020-06-04,16:46:23,17:02:55,NA,incomplete,88,color,0,0,right,Red_Star_Dots_1.jpg,Green_Star_Grid_4.jpg,Red_Triangle_Chess_3.jpg,left,623.0400000349618,false,low,false
Uy7dHl7r,3ni0wfppjctpbx4ya2wphz5gism608,3ygxwbaf74uxdmtuuw1w4mjuikzc48,Uy7dHl7r,2020-0188,2020-06-04,16:46:23,17:02:55,NA,incomplete,89,color,0,1,right,Blue_Plus_Stripes_4.jpg,Green_Plus_Grid_3.jpg,Blue_Star_Chess_1.jpg,left,658.1100000184961,false,low,false
Uy7dHl7r,3ni0wfppjctpbx4ya2wphz5gism608,3ygxwbaf74uxdmtuuw1w4mjuikzc48,Uy7dHl7r,2020-0188,2020-06-04,16:46:23,17:02:55,NA,incomplete,90,shape,1,1,right,Green_Triangle_Grid_1.jpg,Green_Star_Chess_3.jpg,Blue_Triangle_Stripes_4.jpg,left,823.2050000224262,false,low,false
Uy7dHl7r,3ni0wfppjctpbx4ya2wphz5gism608,3ygxwbaf74uxdmtuuw1w4mjuikzc48,Uy7dHl7r,2020-0188,2020-06-04,16:46:23,17:02:55,NA,incomplete,91,shape,1,1,left,Red_Plus_Chess_3.jpg,Green_Plus_Stripes_1.jpg,Red_Circle_Dots_2.jpg,right,1047.4599999724887,false,low,false
Uy7dHl7r,3ni0wfppjctpbx4ya2wphz5gism608,3ygxwbaf74uxdmtuuw1w4mjuikzc48,Uy7dHl7r,2020-0188,2020-06-04,16:46:23,17:02:55,NA,incomplete,92,shape,1,1,left,Green_Triangle_Dots_2.jpg,Blue_Triangle_Stripes_3.jpg,Green_Plus_Grid_1.jpg,left,642.5649999873713,true,low,false
Uy7dHl7r,3ni0wfppjctpbx4ya2wphz5gism608,3ygxwbaf74uxdmtuuw1w4mjuikzc48,Uy7dHl7r,2020-0188,2020-06-04,16:46:23,17:02:55,NA,incomplete,93,shape,1,1,right,Red_Plus_Chess_1.jpg,Red_Triangle_Dots_2.jpg,Purple_Plus_Stripes_4.jpg,right,618.0600000079721,true,low,false
Uy7dHl7r,3ni0wfppjctpbx4ya2wphz5gism608,3ygxwbaf74uxdmtuuw1w4mjuikzc48,Uy7dHl7r,2020-0188,2020-06-04,16:46:23,17:02:55,NA,incomplete,94,shape,1,1,right,Red_Triangle_Chess_1.jpg,Red_Plus_Grid_4.jpg,Green_Triangle_Dots_3.jpg,left,450.3099999856204,false,low,false
Uy7dHl7r,3ni0wfppjctpbx4ya2wphz5gism608,3ygxwbaf74uxdmtuuw1w4mjuikzc48,Uy7dHl7r,2020-0188,2020-06-04,16:46:23,17:02:55,NA,incomplete,95,shape,1,1,left,Green_Triangle_Grid_1.jpg,Purple_Triangle_Chess_4.jpg,Green_Circle_Stripes_2.jpg,left,752.5400000158697,true,low,false
Uy7dHl7r,3ni0wfppjctpbx4ya2wphz5gism608,3ygxwbaf74uxdmtuuw1w4mjuikzc48,Uy7dHl7r,2020-0188,2020-06-04,16:46:23,17:02:55,NA,incomplete,96,shape,1,1,left,Blue_Star_Dots_3.jpg,Green_Star_Chess_1.jpg,Blue_Circle_Stripes_2.jpg,left,620.519999996759,true,low,false
Uy7dHl7r,3ni0wfppjctpbx4ya2wphz5gism608,3ygxwbaf74uxdmtuuw1w4mjuikzc48,Uy7dHl7r,2020-0188,2020-06-04,16:46:23,17:02:55,NA,incomplete,97,shape,1,1,right,Blue_Circle_Grid_3.jpg,Blue_Star_Stripes_1.jpg,Green_Circle_Dots_4.jpg,right,518.3600000455044,true,low,false
Uy7dHl7r,3ni0wfppjctpbx4ya2wphz5gism608,3ygxwbaf74uxdmtuuw1w4mjuikzc48,Uy7dHl7r,2020-0188,2020-06-04,16:46:23,17:02:55,NA,incomplete,98,shape,1,1,right,Blue_Triangle_Grid_1.jpg,Blue_Plus_Dots_3.jpg,Purple_Triangle_Chess_2.jpg,right,606.1249999911524,true,low,false
Uy7dHl7r,3ni0wfppjctpbx4ya2wphz5gism608,3ygxwbaf74uxdmtuuw1w4mjuikzc48,Uy7dHl7r,2020-0188,2020-06-04,16:46:23,17:02:55,NA,incomplete,99,shape,1,1,right,Green_Circle_Stripes_1.jpg,Green_Star_Chess_4.jpg,Red_Circle_Dots_2.jpg,right,590.3200000175275,true,low,false
Uy7dHl7r,3ni0wfppjctpbx4ya2wphz5gism608,3ygxwbaf74uxdmtuuw1w4mjuikzc48,Uy7dHl7r,2020-0188,2020-06-04,16:46:23,17:02:55,NA,incomplete,100,shape,1,1,left,Red_Circle_Grid_3.jpg,Purple_Circle_Stripes_2.jpg,Red_Star_Chess_1.jpg,left,524.8999999603257,true,low,false
Uy7dHl7r,3ni0wfppjctpbx4ya2wphz5gism608,3ygxwbaf74uxdmtuuw1w4mjuikzc48,Uy7dHl7r,2020-0188,2020-06-04,16:46:23,17:02:55,NA,incomplete,101,shape,1,1,right,Green_Circle_Chess_1.jpg,Green_Star_Stripes_4.jpg,Purple_Circle_Dots_3.jpg,right,611.0350000089966,true,low,false
Uy7dHl7r,3ni0wfppjctpbx4ya2wphz5gism608,3ygxwbaf74uxdmtuuw1w4mjuikzc48,Uy7dHl7r,2020-0188,2020-06-04,16:46:23,17:02:55,NA,incomplete,102,shape,1,1,left,Red_Plus_Grid_4.jpg,Purple_Plus_Chess_2.jpg,Red_Star_Dots_1.jpg,left,505.78999996650964,true,low,false
Uy7dHl7r,3ni0wfppjctpbx4ya2wphz5gism608,3ygxwbaf74uxdmtuuw1w4mjuikzc48,Uy7dHl7r,2020-0188,2020-06-04,16:46:23,17:02:55,NA,incomplete,103,shape,1,0,right,Red_Plus_Dots_3.jpg,Red_Circle_Grid_1.jpg,Purple_Plus_Chess_2.jpg,right,485.53000000538304,true,low,false
Uy7dHl7r,3ni0wfppjctpbx4ya2wphz5gism608,3ygxwbaf74uxdmtuuw1w4mjuikzc48,Uy7dHl7r,2020-0188,2020-06-04,16:46:23,17:02:55,NA,incomplete,104,shape,1,1,right,Blue_Circle_Chess_3.jpg,Blue_Star_Dots_2.jpg,Red_Circle_Stripes_4.jpg,left,1246.4550000149757,false,low,false
Uy7dHl7r,3ni0wfppjctpbx4ya2wphz5gism608,3ygxwbaf74uxdmtuuw1w4mjuikzc48,Uy7dHl7r,2020-0188,2020-06-04,16:46:23,17:02:55,NA,incomplete,105,shape,1,0,right,Purple_Plus_Stripes_2.jpg,Purple_Triangle_Grid_3.jpg,Blue_Plus_Chess_1.jpg,right,595.1299999724142,true,low,false
Uy7dHl7r,3ni0wfppjctpbx4ya2wphz5gism608,3ygxwbaf74uxdmtuuw1w4mjuikzc48,Uy7dHl7r,2020-0188,2020-06-04,16:46:23,17:02:55,NA,incomplete,106,shape,1,1,left,Green_Circle_Dots_3.jpg,Red_Circle_Grid_2.jpg,Green_Star_Stripes_1.jpg,right,620.6450000172481,false,low,false
Uy7dHl7r,3ni0wfppjctpbx4ya2wphz5gism608,3ygxwbaf74uxdmtuuw1w4mjuikzc48,Uy7dHl7r,2020-0188,2020-06-04,16:46:23,17:02:55,NA,incomplete,107,shape,1,1,left,Blue_Circle_Chess_1.jpg,Green_Circle_Grid_3.jpg,Blue_Plus_Stripes_4.jpg,right,607.5000000419095,false,low,false
Uy7dHl7r,3ni0wfppjctpbx4ya2wphz5gism608,3ygxwbaf74uxdmtuuw1w4mjuikzc48,Uy7dHl7r,2020-0188,2020-06-04,16:46:23,17:02:55,NA,incomplete,108,shape,1,1,right,Purple_Plus_Stripes_4.jpg,Purple_Triangle_Chess_1.jpg,Green_Plus_Grid_2.jpg,right,478.4850000287406,true,low,false
Uy7dHl7r,3ni0wfppjctpbx4ya2wphz5gism608,3ygxwbaf74uxdmtuuw1w4mjuikzc48,Uy7dHl7r,2020-0188,2020-06-04,16:46:23,17:02:55,NA,incomplete,109,shape,1,1,left,Red_Circle_Grid_2.jpg,Purple_Circle_Chess_1.jpg,Red_Star_Dots_4.jpg,left,532.2900000028312,true,low,false
Uy7dHl7r,3ni0wfppjctpbx4ya2wphz5gism608,3ygxwbaf74uxdmtuuw1w4mjuikzc48,Uy7dHl7r,2020-0188,2020-06-04,16:46:23,17:02:55,NA,incomplete,110,shape,1,1,right,Blue_Star_Stripes_2.jpg,Blue_Triangle_Chess_1.jpg,Red_Star_Grid_3.jpg,right,484.99999998603016,true,low,false
Uy7dHl7r,3ni0wfppjctpbx4ya2wphz5gism608,3ygxwbaf74uxdmtuuw1w4mjuikzc48,Uy7dHl7r,2020-0188,2020-06-04,16:46:23,17:02:55,NA,incomplete,111,shape,1,0,right,Red_Triangle_Dots_4.jpg,Red_Star_Grid_1.jpg,Blue_Triangle_Stripes_2.jpg,right,476.21500003151596,true,low,false
Uy7dHl7r,3ni0wfppjctpbx4ya2wphz5gism608,3ygxwbaf74uxdmtuuw1w4mjuikzc48,Uy7dHl7r,2020-0188,2020-06-04,16:46:23,17:02:55,NA,incomplete,112,shape,1,1,right,Red_Circle_Stripes_1.jpg,Red_Star_Grid_3.jpg,Purple_Circle_Dots_4.jpg,right,449.7700000065379,true,low,false
Uy7dHl7r,3ni0wfppjctpbx4ya2wphz5gism608,3ygxwbaf74uxdmtuuw1w4mjuikzc48,Uy7dHl7r,2020-0188,2020-06-04,16:46:23,17:02:55,NA,incomplete,113,shape,1,1,left,Red_Triangle_Dots_2.jpg,Purple_Triangle_Stripes_4.jpg,Red_Circle_Chess_1.jpg,left,482.6300000422634,true,low,false
Uy7dHl7r,3ni0wfppjctpbx4ya2wphz5gism608,3ygxwbaf74uxdmtuuw1w4mjuikzc48,Uy7dHl7r,2020-0188,2020-06-04,16:46:23,17:02:55,NA,incomplete,114,shape,1,1,right,Red_Circle_Dots_1.jpg,Red_Triangle_Chess_3.jpg,Green_Circle_Stripes_2.jpg,right,385.2000000188127,true,low,false
Uy7dHl7r,3ni0wfppjctpbx4ya2wphz5gism608,3ygxwbaf74uxdmtuuw1w4mjuikzc48,Uy7dHl7r,2020-0188,2020-06-04,16:46:23,17:02:55,NA,incomplete,115,shape,1,1,right,Green_Plus_Stripes_2.jpg,Green_Triangle_Dots_1.jpg,Red_Plus_Chess_4.jpg,right,485.2200000314042,true,low,false
Uy7dHl7r,3ni0wfppjctpbx4ya2wphz5gism608,3ygxwbaf74uxdmtuuw1w4mjuikzc48,Uy7dHl7r,2020-0188,2020-06-04,16:46:23,17:02:55,NA,incomplete,116,shape,1,1,right,Red_Plus_Grid_2.jpg,Red_Star_Chess_3.jpg,Blue_Plus_Stripes_1.jpg,right,548.1749999453314,true,low,false
Uy7dHl7r,3ni0wfppjctpbx4ya2wphz5gism608,3ygxwbaf74uxdmtuuw1w4mjuikzc48,Uy7dHl7r,2020-0188,2020-06-04,16:46:23,17:02:55,NA,incomplete,117,shape,1,0,right,Red_Triangle_Stripes_2.jpg,Red_Circle_Grid_3.jpg,Green_Triangle_Chess_4.jpg,right,424.6350000030361,true,low,false
Uy7dHl7r,3ni0wfppjctpbx4ya2wphz5gism608,3ygxwbaf74uxdmtuuw1w4mjuikzc48,Uy7dHl7r,2020-0188,2020-06-04,16:46:23,17:02:55,NA,incomplete,118,shape,1,1,right,Blue_Triangle_Stripes_2.jpg,Blue_Star_Chess_1.jpg,Purple_Triangle_Grid_4.jpg,right,465.4749999754131,true,low,false
Uy7dHl7r,3ni0wfppjctpbx4ya2wphz5gism608,3ygxwbaf74uxdmtuuw1w4mjuikzc48,Uy7dHl7r,2020-0188,2020-06-04,16:46:23,17:02:55,NA,incomplete,119,shape,1,1,left,Red_Star_Grid_2.jpg,Blue_Star_Stripes_1.jpg,Red_Plus_Chess_3.jpg,right,429.245000006631,false,low,false
Uy7dHl7r,3ni0wfppjctpbx4ya2wphz5gism608,3ygxwbaf74uxdmtuuw1w4mjuikzc48,Uy7dHl7r,2020-0188,2020-06-04,16:46:23,17:02:55,NA,incomplete,120,race,2,0,left,A_F_10.jpg,A_M_15.jpg,C_F_11.jpg,NA,NA,NA,low,false
Uy7dHl7r,3ni0wfppjctpbx4ya2wphz5gism608,3ygxwbaf74uxdmtuuw1w4mjuikzc48,Uy7dHl7r,2020-0188,2020-06-04,16:46:23,17:02:55,NA,incomplete,121,race,2,1,right,C_F_14.jpg,A_F_07.jpg,C_M_02.jpg,right,1495.9300000336953,true,low,false
Uy7dHl7r,3ni0wfppjctpbx4ya2wphz5gism608,3ygxwbaf74uxdmtuuw1w4mjuikzc48,Uy7dHl7r,2020-0188,2020-06-04,16:46:23,17:02:55,NA,incomplete,122,race,2,1,left,C_F_11.jpg,C_M_12.jpg,A_F_14.jpg,left,975.1350000151433,true,low,false
Uy7dHl7r,3ni0wfppjctpbx4ya2wphz5gism608,3ygxwbaf74uxdmtuuw1w4mjuikzc48,Uy7dHl7r,2020-0188,2020-06-04,16:46:23,17:02:55,NA,incomplete,123,race,2,0,right,C_F_01.jpg,A_F_11.jpg,C_M_03.jpg,right,963.9150000293739,true,low,false
Uy7dHl7r,3ni0wfppjctpbx4ya2wphz5gism608,3ygxwbaf74uxdmtuuw1w4mjuikzc48,Uy7dHl7r,2020-0188,2020-06-04,16:46:23,17:02:55,NA,incomplete,124,race,2,1,right,A_F_15.jpg,C_F_04.jpg,A_M_06.jpg,left,1507.7949999831617,false,low,false
Uy7dHl7r,3ni0wfppjctpbx4ya2wphz5gism608,3ygxwbaf74uxdmtuuw1w4mjuikzc48,Uy7dHl7r,2020-0188,2020-06-04,16:46:23,17:02:55,NA,incomplete,125,race,2,0,right,A_M_13.jpg,C_M_03.jpg,A_F_05.jpg,right,1013.9900000067428,true,low,false
Uy7dHl7r,3ni0wfppjctpbx4ya2wphz5gism608,3ygxwbaf74uxdmtuuw1w4mjuikzc48,Uy7dHl7r,2020-0188,2020-06-04,16:46:23,17:02:55,NA,incomplete,126,race,2,1,right,C_M_08.jpg,A_M_10.jpg,C_F_15.jpg,right,878.5899999784306,true,low,false
Uy7dHl7r,3ni0wfppjctpbx4ya2wphz5gism608,3ygxwbaf74uxdmtuuw1w4mjuikzc48,Uy7dHl7r,2020-0188,2020-06-04,16:46:23,17:02:55,NA,incomplete,127,race,2,1,right,C_F_04.jpg,A_F_12.jpg,C_M_09.jpg,left,754.3300000252202,false,low,false
Uy7dHl7r,3ni0wfppjctpbx4ya2wphz5gism608,3ygxwbaf74uxdmtuuw1w4mjuikzc48,Uy7dHl7r,2020-0188,2020-06-04,16:46:23,17:02:55,NA,incomplete,128,race,2,1,left,C_M_02.jpg,C_F_15.jpg,A_M_03.jpg,left,809.6900000236928,true,low,false
Uy7dHl7r,3ni0wfppjctpbx4ya2wphz5gism608,3ygxwbaf74uxdmtuuw1w4mjuikzc48,Uy7dHl7r,2020-0188,2020-06-04,16:46:23,17:02:55,NA,incomplete,129,race,2,1,left,A_M_09.jpg,A_F_02.jpg,C_M_16.jpg,left,1062.4100000131875,true,low,false
Uy7dHl7r,3ni0wfppjctpbx4ya2wphz5gism608,3ygxwbaf74uxdmtuuw1w4mjuikzc48,Uy7dHl7r,2020-0188,2020-06-04,16:46:23,17:02:55,NA,incomplete,130,race,2,0,left,A_M_04.jpg,A_F_13.jpg,C_M_12.jpg,right,867.1900000190362,false,low,false
Uy7dHl7r,3ni0wfppjctpbx4ya2wphz5gism608,3ygxwbaf74uxdmtuuw1w4mjuikzc48,Uy7dHl7r,2020-0188,2020-06-04,16:46:23,17:02:55,NA,incomplete,131,race,2,1,left,C_F_03.jpg,C_M_14.jpg,A_F_07.jpg,left,801.534999976866,true,low,false
Uy7dHl7r,3ni0wfppjctpbx4ya2wphz5gism608,3ygxwbaf74uxdmtuuw1w4mjuikzc48,Uy7dHl7r,2020-0188,2020-06-04,16:46:23,17:02:55,NA,incomplete,132,race,2,0,left,C_M_12.jpg,C_F_02.jpg,A_M_04.jpg,left,795.7949999836273,true,low,false
Uy7dHl7r,3ni0wfppjctpbx4ya2wphz5gism608,3ygxwbaf74uxdmtuuw1w4mjuikzc48,Uy7dHl7r,2020-0188,2020-06-04,16:46:23,17:02:55,NA,incomplete,133,race,2,1,left,C_F_04.jpg,C_M_14.jpg,A_F_07.jpg,right,976.6900000395253,false,low,false
Uy7dHl7r,3ni0wfppjctpbx4ya2wphz5gism608,3ygxwbaf74uxdmtuuw1w4mjuikzc48,Uy7dHl7r,2020-0188,2020-06-04,16:46:23,17:02:55,NA,incomplete,134,race,2,1,left,A_M_09.jpg,A_F_05.jpg,C_M_14.jpg,left,843.2649999740534,true,low,false
Uy7dHl7r,3ni0wfppjctpbx4ya2wphz5gism608,3ygxwbaf74uxdmtuuw1w4mjuikzc48,Uy7dHl7r,2020-0188,2020-06-04,16:46:23,17:02:55,NA,incomplete,135,race,2,1,left,C_F_07.jpg,C_M_03.jpg,A_F_11.jpg,right,1022.9099999996834,false,low,false
Uy7dHl7r,3ni0wfppjctpbx4ya2wphz5gism608,3ygxwbaf74uxdmtuuw1w4mjuikzc48,Uy7dHl7r,2020-0188,2020-06-04,16:46:23,17:02:55,NA,incomplete,136,race,2,0,left,C_F_04.jpg,C_M_03.jpg,A_F_12.jpg,left,765.2200000011362,true,low,false
Uy7dHl7r,3ni0wfppjctpbx4ya2wphz5gism608,3ygxwbaf74uxdmtuuw1w4mjuikzc48,Uy7dHl7r,2020-0188,2020-06-04,16:46:23,17:02:55,NA,incomplete,137,race,2,1,right,C_F_03.jpg,A_F_05.jpg,C_M_15.jpg,right,1027.5350000010803,true,low,false
Uy7dHl7r,3ni0wfppjctpbx4ya2wphz5gism608,3ygxwbaf74uxdmtuuw1w4mjuikzc48,Uy7dHl7r,2020-0188,2020-06-04,16:46:23,17:02:55,NA,incomplete,138,race,2,1,right,A_M_16.jpg,C_M_11.jpg,A_F_10.jpg,right,799.3349999887869,true,low,false
Uy7dHl7r,3ni0wfppjctpbx4ya2wphz5gism608,3ygxwbaf74uxdmtuuw1w4mjuikzc48,Uy7dHl7r,2020-0188,2020-06-04,16:46:23,17:02:55,NA,incomplete,139,race,2,0,left,A_M_11.jpg,A_F_12.jpg,C_M_05.jpg,left,861.1800000071526,true,low,false
Uy7dHl7r,3ni0wfppjctpbx4ya2wphz5gism608,3ygxwbaf74uxdmtuuw1w4mjuikzc48,Uy7dHl7r,2020-0188,2020-06-04,16:46:23,17:02:55,NA,incomplete,140,gender,3,1,right,C_F_10.jpg,C_M_15.jpg,A_F_14.jpg,left,818.6550000100397,false,low,false
Uy7dHl7r,3ni0wfppjctpbx4ya2wphz5gism608,3ygxwbaf74uxdmtuuw1w4mjuikzc48,Uy7dHl7r,2020-0188,2020-06-04,16:46:23,17:02:55,NA,incomplete,141,gender,3,0,left,A_F_16.jpg,C_F_02.jpg,A_M_03.jpg,right,955.8100000140257,false,low,false
Uy7dHl7r,3ni0wfppjctpbx4ya2wphz5gism608,3ygxwbaf74uxdmtuuw1w4mjuikzc48,Uy7dHl7r,2020-0188,2020-06-04,16:46:23,17:02:55,NA,incomplete,142,gender,3,1,right,C_M_12.jpg,C_F_09.jpg,A_M_13.jpg,left,831.865000014659,false,low,false
Uy7dHl7r,3ni0wfppjctpbx4ya2wphz5gism608,3ygxwbaf74uxdmtuuw1w4mjuikzc48,Uy7dHl7r,2020-0188,2020-06-04,16:46:23,17:02:55,NA,incomplete,143,gender,3,1,left,C_F_06.jpg,A_F_09.jpg,C_M_16.jpg,right,948.6599999945611,false,low,false
Uy7dHl7r,3ni0wfppjctpbx4ya2wphz5gism608,3ygxwbaf74uxdmtuuw1w4mjuikzc48,Uy7dHl7r,2020-0188,2020-06-04,16:46:23,17:02:55,NA,incomplete,144,gender,3,1,right,C_M_09.jpg,C_F_07.jpg,A_M_10.jpg,left,961.6949999472126,false,low,false
Uy7dHl7r,3ni0wfppjctpbx4ya2wphz5gism608,3ygxwbaf74uxdmtuuw1w4mjuikzc48,Uy7dHl7r,2020-0188,2020-06-04,16:46:23,17:02:55,NA,incomplete,145,gender,3,1,right,C_M_09.jpg,C_F_05.jpg,A_M_12.jpg,right,879.8749999841675,true,low,false
Uy7dHl7r,3ni0wfppjctpbx4ya2wphz5gism608,3ygxwbaf74uxdmtuuw1w4mjuikzc48,Uy7dHl7r,2020-0188,2020-06-04,16:46:23,17:02:55,NA,incomplete,146,gender,3,1,right,A_F_07.jpg,A_M_15.jpg,C_F_08.jpg,right,727.7650000178255,true,low,false
Uy7dHl7r,3ni0wfppjctpbx4ya2wphz5gism608,3ygxwbaf74uxdmtuuw1w4mjuikzc48,Uy7dHl7r,2020-0188,2020-06-04,16:46:23,17:02:55,NA,incomplete,147,gender,3,1,left,A_F_01.jpg,C_F_16.jpg,A_M_08.jpg,left,507.4049999821,true,low,false
Uy7dHl7r,3ni0wfppjctpbx4ya2wphz5gism608,3ygxwbaf74uxdmtuuw1w4mjuikzc48,Uy7dHl7r,2020-0188,2020-06-04,16:46:23,17:02:55,NA,incomplete,148,gender,3,1,left,C_F_07.jpg,A_F_02.jpg,C_M_04.jpg,left,565.6350000062957,true,low,false
Uy7dHl7r,3ni0wfppjctpbx4ya2wphz5gism608,3ygxwbaf74uxdmtuuw1w4mjuikzc48,Uy7dHl7r,2020-0188,2020-06-04,16:46:23,17:02:55,NA,incomplete,149,gender,3,1,left,A_F_16.jpg,C_F_01.jpg,A_M_11.jpg,left,688.0549999768846,true,low,false
Uy7dHl7r,3ni0wfppjctpbx4ya2wphz5gism608,3ygxwbaf74uxdmtuuw1w4mjuikzc48,Uy7dHl7r,2020-0188,2020-06-04,16:46:23,17:02:55,NA,incomplete,150,gender,3,1,left,C_M_07.jpg,A_M_16.jpg,C_F_08.jpg,right,819.9100000201724,false,low,false
Uy7dHl7r,3ni0wfppjctpbx4ya2wphz5gism608,3ygxwbaf74uxdmtuuw1w4mjuikzc48,Uy7dHl7r,2020-0188,2020-06-04,16:46:23,17:02:55,NA,incomplete,151,gender,3,1,left,A_M_11.jpg,C_M_02.jpg,A_F_09.jpg,right,1151.8700000015087,false,low,false
Uy7dHl7r,3ni0wfppjctpbx4ya2wphz5gism608,3ygxwbaf74uxdmtuuw1w4mjuikzc48,Uy7dHl7r,2020-0188,2020-06-04,16:46:23,17:02:55,NA,incomplete,152,gender,3,1,right,A_F_06.jpg,A_M_11.jpg,C_F_02.jpg,left,910.3750000358559,false,low,false
Uy7dHl7r,3ni0wfppjctpbx4ya2wphz5gism608,3ygxwbaf74uxdmtuuw1w4mjuikzc48,Uy7dHl7r,2020-0188,2020-06-04,16:46:23,17:02:55,NA,incomplete,153,gender,3,1,right,A_M_13.jpg,A_F_02.jpg,C_M_03.jpg,left,787.4249999877065,false,low,false
Uy7dHl7r,3ni0wfppjctpbx4ya2wphz5gism608,3ygxwbaf74uxdmtuuw1w4mjuikzc48,Uy7dHl7r,2020-0188,2020-06-04,16:46:23,17:02:55,NA,incomplete,154,gender,3,1,left,A_F_08.jpg,C_F_14.jpg,A_M_11.jpg,right,1189.8650000221096,false,low,false
Uy7dHl7r,3ni0wfppjctpbx4ya2wphz5gism608,3ygxwbaf74uxdmtuuw1w4mjuikzc48,Uy7dHl7r,2020-0188,2020-06-04,16:46:23,17:02:55,NA,incomplete,155,gender,3,0,right,A_M_16.jpg,A_F_14.jpg,C_M_09.jpg,right,839.3599999835715,true,low,false
Uy7dHl7r,3ni0wfppjctpbx4ya2wphz5gism608,3ygxwbaf74uxdmtuuw1w4mjuikzc48,Uy7dHl7r,2020-0188,2020-06-04,16:46:23,17:02:55,NA,incomplete,156,gender,3,1,left,A_F_10.jpg,C_F_14.jpg,A_M_15.jpg,right,832.0149999926798,false,low,false
Uy7dHl7r,3ni0wfppjctpbx4ya2wphz5gism608,3ygxwbaf74uxdmtuuw1w4mjuikzc48,Uy7dHl7r,2020-0188,2020-06-04,16:46:23,17:02:55,NA,incomplete,157,gender,3,0,right,A_M_12.jpg,A_F_16.jpg,C_M_01.jpg,left,766.8950000079349,false,low,false
Uy7dHl7r,3ni0wfppjctpbx4ya2wphz5gism608,3ygxwbaf74uxdmtuuw1w4mjuikzc48,Uy7dHl7r,2020-0188,2020-06-04,16:46:23,17:02:55,NA,incomplete,158,gender,3,1,right,C_M_11.jpg,C_F_01.jpg,A_M_14.jpg,left,976.7500000307336,false,low,false
Uy7dHl7r,3ni0wfppjctpbx4ya2wphz5gism608,3ygxwbaf74uxdmtuuw1w4mjuikzc48,Uy7dHl7r,2020-0188,2020-06-04,16:46:23,17:02:55,NA,incomplete,159,gender,3,1,left,C_F_05.jpg,A_F_12.jpg,C_M_01.jpg,left,814.600000041537,true,low,false
Uy7dHl7r,3ni0wfppjctpbx4ya2wphz5gism608,3ygxwbaf74uxdmtuuw1w4mjuikzc48,Uy7dHl7r,2020-0188,2020-06-04,16:46:23,17:02:55,NA,incomplete,160,race,2,1,right,A_M_05.jpg,C_M_11.jpg,A_F_03.jpg,left,607.625000004191,false,low,false
Uy7dHl7r,3ni0wfppjctpbx4ya2wphz5gism608,3ygxwbaf74uxdmtuuw1w4mjuikzc48,Uy7dHl7r,2020-0188,2020-06-04,16:46:23,17:02:55,NA,incomplete,161,race,2,1,left,A_M_04.jpg,A_F_10.jpg,C_M_09.jpg,left,870.9300000336953,true,low,false
Uy7dHl7r,3ni0wfppjctpbx4ya2wphz5gism608,3ygxwbaf74uxdmtuuw1w4mjuikzc48,Uy7dHl7r,2020-0188,2020-06-04,16:46:23,17:02:55,NA,incomplete,162,race,2,1,right,C_M_11.jpg,A_M_09.jpg,C_F_10.jpg,right,773.0449999799021,true,low,false
Uy7dHl7r,3ni0wfppjctpbx4ya2wphz5gism608,3ygxwbaf74uxdmtuuw1w4mjuikzc48,Uy7dHl7r,2020-0188,2020-06-04,16:46:23,17:02:55,NA,incomplete,163,race,2,1,left,C_F_09.jpg,C_M_15.jpg,A_F_14.jpg,left,882.7400000300258,true,low,false
Uy7dHl7r,3ni0wfppjctpbx4ya2wphz5gism608,3ygxwbaf74uxdmtuuw1w4mjuikzc48,Uy7dHl7r,2020-0188,2020-06-04,16:46:23,17:02:55,NA,incomplete,164,race,2,1,right,C_F_10.jpg,A_F_09.jpg,C_M_08.jpg,left,669.1550000105053,false,low,false
Uy7dHl7r,3ni0wfppjctpbx4ya2wphz5gism608,3ygxwbaf74uxdmtuuw1w4mjuikzc48,Uy7dHl7r,2020-0188,2020-06-04,16:46:23,17:02:55,NA,incomplete,165,race,2,1,left,C_M_12.jpg,C_F_10.jpg,A_M_13.jpg,left,684.6849999856204,true,low,false
Uy7dHl7r,3ni0wfppjctpbx4ya2wphz5gism608,3ygxwbaf74uxdmtuuw1w4mjuikzc48,Uy7dHl7r,2020-0188,2020-06-04,16:46:23,17:02:55,NA,incomplete,166,race,2,1,right,A_M_07.jpg,C_M_03.jpg,A_F_13.jpg,right,744.6500000078231,true,low,false
Uy7dHl7r,3ni0wfppjctpbx4ya2wphz5gism608,3ygxwbaf74uxdmtuuw1w4mjuikzc48,Uy7dHl7r,2020-0188,2020-06-04,16:46:23,17:02:55,NA,incomplete,167,race,2,1,left,C_M_11.jpg,C_F_01.jpg,A_M_04.jpg,left,678.8500000257045,true,low,false
Uy7dHl7r,3ni0wfppjctpbx4ya2wphz5gism608,3ygxwbaf74uxdmtuuw1w4mjuikzc48,Uy7dHl7r,2020-0188,2020-06-04,16:46:23,17:02:55,NA,incomplete,168,race,2,1,right,C_F_06.jpg,A_F_14.jpg,C_M_10.jpg,right,910.9199999948032,true,low,false
Uy7dHl7r,3ni0wfppjctpbx4ya2wphz5gism608,3ygxwbaf74uxdmtuuw1w4mjuikzc48,Uy7dHl7r,2020-0188,2020-06-04,16:46:23,17:02:55,NA,incomplete,169,race,2,0,left,C_F_03.jpg,C_M_15.jpg,A_F_07.jpg,left,736.7700000177138,true,low,false
Uy7dHl7r,3ni0wfppjctpbx4ya2wphz5gism608,3ygxwbaf74uxdmtuuw1w4mjuikzc48,Uy7dHl7r,2020-0188,2020-06-04,16:46:23,17:02:55,NA,incomplete,170,race,2,1,right,A_M_14.jpg,C_M_10.jpg,A_F_03.jpg,left,642.6399999763817,false,low,false
Uy7dHl7r,3ni0wfppjctpbx4ya2wphz5gism608,3ygxwbaf74uxdmtuuw1w4mjuikzc48,Uy7dHl7r,2020-0188,2020-06-04,16:46:23,17:02:55,NA,incomplete,171,race,2,1,left,C_F_07.jpg,C_M_11.jpg,A_F_03.jpg,left,963.5199999902397,true,low,false
Uy7dHl7r,3ni0wfppjctpbx4ya2wphz5gism608,3ygxwbaf74uxdmtuuw1w4mjuikzc48,Uy7dHl7r,2020-0188,2020-06-04,16:46:23,17:02:55,NA,incomplete,172,race,2,1,left,A_F_15.jpg,A_M_11.jpg,C_F_16.jpg,right,916.5750000393018,false,low,false
Uy7dHl7r,3ni0wfppjctpbx4ya2wphz5gism608,3ygxwbaf74uxdmtuuw1w4mjuikzc48,Uy7dHl7r,2020-0188,2020-06-04,16:46:23,17:02:55,NA,incomplete,173,race,2,0,left,A_M_08.jpg,A_F_16.jpg,C_M_02.jpg,left,751.5399999683723,true,low,false
Uy7dHl7r,3ni0wfppjctpbx4ya2wphz5gism608,3ygxwbaf74uxdmtuuw1w4mjuikzc48,Uy7dHl7r,2020-0188,2020-06-04,16:46:23,17:02:55,NA,incomplete,174,race,2,1,right,C_M_11.jpg,A_M_15.jpg,C_F_06.jpg,right,853.2950000371784,true,low,false
Uy7dHl7r,3ni0wfppjctpbx4ya2wphz5gism608,3ygxwbaf74uxdmtuuw1w4mjuikzc48,Uy7dHl7r,2020-0188,2020-06-04,16:46:23,17:02:55,NA,incomplete,175,race,2,0,right,A_M_08.jpg,C_M_07.jpg,A_F_16.jpg,right,870.4299999517389,true,low,false
Uy7dHl7r,3ni0wfppjctpbx4ya2wphz5gism608,3ygxwbaf74uxdmtuuw1w4mjuikzc48,Uy7dHl7r,2020-0188,2020-06-04,16:46:23,17:02:55,NA,incomplete,176,race,2,1,left,C_M_15.jpg,C_F_03.jpg,A_M_01.jpg,left,645.1200000010431,true,low,false
Uy7dHl7r,3ni0wfppjctpbx4ya2wphz5gism608,3ygxwbaf74uxdmtuuw1w4mjuikzc48,Uy7dHl7r,2020-0188,2020-06-04,16:46:23,17:02:55,NA,incomplete,177,race,2,0,left,C_F_16.jpg,C_M_02.jpg,A_F_09.jpg,left,1018.6300000059418,true,low,false
Uy7dHl7r,3ni0wfppjctpbx4ya2wphz5gism608,3ygxwbaf74uxdmtuuw1w4mjuikzc48,Uy7dHl7r,2020-0188,2020-06-04,16:46:23,17:02:55,NA,incomplete,178,race,2,1,right,A_F_11.jpg,C_F_13.jpg,A_M_06.jpg,left,810.7099999906495,false,low,false
Uy7dHl7r,3ni0wfppjctpbx4ya2wphz5gism608,3ygxwbaf74uxdmtuuw1w4mjuikzc48,Uy7dHl7r,2020-0188,2020-06-04,16:46:23,17:02:55,NA,incomplete,179,race,2,1,left,A_M_10.jpg,A_F_04.jpg,C_M_02.jpg,left,650.4899999708869,true,low,false
Uy7dHl7r,3ni0wfppjctpbx4ya2wphz5gism608,3ygxwbaf74uxdmtuuw1w4mjuikzc48,Uy7dHl7r,2020-0188,2020-06-04,16:46:23,17:02:55,NA,incomplete,180,gender,3,1,right,A_F_13.jpg,A_M_12.jpg,C_F_06.jpg,left,771.2649999884889,false,low,false
Uy7dHl7r,3ni0wfppjctpbx4ya2wphz5gism608,3ygxwbaf74uxdmtuuw1w4mjuikzc48,Uy7dHl7r,2020-0188,2020-06-04,16:46:23,17:02:55,NA,incomplete,181,gender,3,1,right,A_M_05.jpg,A_F_03.jpg,C_M_01.jpg,left,743.7199999694712,false,low,false
Uy7dHl7r,3ni0wfppjctpbx4ya2wphz5gism608,3ygxwbaf74uxdmtuuw1w4mjuikzc48,Uy7dHl7r,2020-0188,2020-06-04,16:46:23,17:02:55,NA,incomplete,182,gender,3,1,right,A_F_10.jpg,A_M_13.jpg,C_F_08.jpg,left,571.0400000098161,false,low,false
Uy7dHl7r,3ni0wfppjctpbx4ya2wphz5gism608,3ygxwbaf74uxdmtuuw1w4mjuikzc48,Uy7dHl7r,2020-0188,2020-06-04,16:46:23,17:02:55,NA,incomplete,183,gender,3,0,left,C_F_11.jpg,A_F_10.jpg,C_M_03.jpg,left,647.850000008475,true,low,false
Uy7dHl7r,3ni0wfppjctpbx4ya2wphz5gism608,3ygxwbaf74uxdmtuuw1w4mjuikzc48,Uy7dHl7r,2020-0188,2020-06-04,16:46:23,17:02:55,NA,incomplete,184,gender,3,1,left,C_F_11.jpg,A_F_07.jpg,C_M_03.jpg,right,833.489999989979,false,low,false
Uy7dHl7r,3ni0wfppjctpbx4ya2wphz5gism608,3ygxwbaf74uxdmtuuw1w4mjuikzc48,Uy7dHl7r,2020-0188,2020-06-04,16:46:23,17:02:55,NA,incomplete,185,gender,3,1,left,C_F_07.jpg,A_F_01.jpg,C_M_14.jpg,right,986.5450000506826,false,low,false
Uy7dHl7r,3ni0wfppjctpbx4ya2wphz5gism608,3ygxwbaf74uxdmtuuw1w4mjuikzc48,Uy7dHl7r,2020-0188,2020-06-04,16:46:23,17:02:55,NA,incomplete,186,gender,3,1,right,C_F_05.jpg,C_M_16.jpg,A_F_04.jpg,right,798.0899999965914,true,low,false
Uy7dHl7r,3ni0wfppjctpbx4ya2wphz5gism608,3ygxwbaf74uxdmtuuw1w4mjuikzc48,Uy7dHl7r,2020-0188,2020-06-04,16:46:23,17:02:55,NA,incomplete,187,gender,3,1,right,C_M_04.jpg,C_F_11.jpg,A_M_14.jpg,right,750.9650000138208,true,low,false
Uy7dHl7r,3ni0wfppjctpbx4ya2wphz5gism608,3ygxwbaf74uxdmtuuw1w4mjuikzc48,Uy7dHl7r,2020-0188,2020-06-04,16:46:23,17:02:55,NA,incomplete,188,gender,3,0,right,A_M_01.jpg,A_F_08.jpg,C_M_09.jpg,left,845.0099999899976,false,low,false
Uy7dHl7r,3ni0wfppjctpbx4ya2wphz5gism608,3ygxwbaf74uxdmtuuw1w4mjuikzc48,Uy7dHl7r,2020-0188,2020-06-04,16:46:23,17:02:55,NA,incomplete,189,gender,3,1,left,A_M_10.jpg,C_M_12.jpg,A_F_15.jpg,right,799.4100000360049,false,low,false
Uy7dHl7r,3ni0wfppjctpbx4ya2wphz5gism608,3ygxwbaf74uxdmtuuw1w4mjuikzc48,Uy7dHl7r,2020-0188,2020-06-04,16:46:23,17:02:55,NA,incomplete,190,gender,3,1,left,C_F_03.jpg,A_F_02.jpg,C_M_12.jpg,left,558.5999999893829,true,low,false
Uy7dHl7r,3ni0wfppjctpbx4ya2wphz5gism608,3ygxwbaf74uxdmtuuw1w4mjuikzc48,Uy7dHl7r,2020-0188,2020-06-04,16:46:23,17:02:55,NA,incomplete,191,gender,3,1,right,A_F_13.jpg,A_M_15.jpg,C_F_03.jpg,right,624.9550000065938,true,low,false
Uy7dHl7r,3ni0wfppjctpbx4ya2wphz5gism608,3ygxwbaf74uxdmtuuw1w4mjuikzc48,Uy7dHl7r,2020-0188,2020-06-04,16:46:23,17:02:55,NA,incomplete,192,gender,3,1,left,C_F_05.jpg,A_F_08.jpg,C_M_03.jpg,right,940.245000005234,false,low,false
Uy7dHl7r,3ni0wfppjctpbx4ya2wphz5gism608,3ygxwbaf74uxdmtuuw1w4mjuikzc48,Uy7dHl7r,2020-0188,2020-06-04,16:46:23,17:02:55,NA,incomplete,193,gender,3,1,right,A_F_11.jpg,A_M_07.jpg,C_F_10.jpg,right,756.6100000403821,true,low,false
Uy7dHl7r,3ni0wfppjctpbx4ya2wphz5gism608,3ygxwbaf74uxdmtuuw1w4mjuikzc48,Uy7dHl7r,2020-0188,2020-06-04,16:46:23,17:02:55,NA,incomplete,194,gender,3,1,right,C_M_07.jpg,C_F_04.jpg,A_M_03.jpg,right,745.4799999832176,true,low,false
Uy7dHl7r,3ni0wfppjctpbx4ya2wphz5gism608,3ygxwbaf74uxdmtuuw1w4mjuikzc48,Uy7dHl7r,2020-0188,2020-06-04,16:46:23,17:02:55,NA,incomplete,195,gender,3,0,left,A_F_09.jpg,C_F_13.jpg,A_M_11.jpg,left,666.1949999979697,true,low,false
Uy7dHl7r,3ni0wfppjctpbx4ya2wphz5gism608,3ygxwbaf74uxdmtuuw1w4mjuikzc48,Uy7dHl7r,2020-0188,2020-06-04,16:46:23,17:02:55,NA,incomplete,196,gender,3,1,right,A_M_04.jpg,A_F_14.jpg,C_M_10.jpg,right,674.2900000535883,true,low,false
Uy7dHl7r,3ni0wfppjctpbx4ya2wphz5gism608,3ygxwbaf74uxdmtuuw1w4mjuikzc48,Uy7dHl7r,2020-0188,2020-06-04,16:46:23,17:02:55,NA,incomplete,197,gender,3,1,left,A_M_07.jpg,C_M_12.jpg,A_F_10.jpg,left,976.8799999728799,true,low,false
Uy7dHl7r,3ni0wfppjctpbx4ya2wphz5gism608,3ygxwbaf74uxdmtuuw1w4mjuikzc48,Uy7dHl7r,2020-0188,2020-06-04,16:46:23,17:02:55,NA,incomplete,198,gender,3,1,right,A_M_05.jpg,A_F_08.jpg,C_M_06.jpg,left,572.3049999796785,false,low,false
Uy7dHl7r,3ni0wfppjctpbx4ya2wphz5gism608,3ygxwbaf74uxdmtuuw1w4mjuikzc48,Uy7dHl7r,2020-0188,2020-06-04,16:46:23,17:02:55,NA,incomplete,199,gender,3,1,left,A_F_04.jpg,C_F_16.jpg,A_M_01.jpg,left,642.214999999851,true,low,false
Uy7dHl7r,3ni0wfppjctpbx4ya2wphz5gism608,3ygxwbaf74uxdmtuuw1w4mjuikzc48,Uy7dHl7r,2020-0188,2020-06-04,16:46:23,17:02:55,NA,incomplete,200,race,2,0,right,C_F_08.jpg,A_F_15.jpg,C_M_05.jpg,left,575.0150000094436,false,low,false
Uy7dHl7r,3ni0wfppjctpbx4ya2wphz5gism608,3ygxwbaf74uxdmtuuw1w4mjuikzc48,Uy7dHl7r,2020-0188,2020-06-04,16:46:23,17:02:55,NA,incomplete,201,race,2,1,right,C_F_01.jpg,A_F_13.jpg,C_M_03.jpg,left,700.490000017453,false,low,false
Uy7dHl7r,3ni0wfppjctpbx4ya2wphz5gism608,3ygxwbaf74uxdmtuuw1w4mjuikzc48,Uy7dHl7r,2020-0188,2020-06-04,16:46:23,17:02:55,NA,incomplete,202,race,2,0,left,C_M_03.jpg,C_F_08.jpg,A_M_02.jpg,right,481.15500004496425,false,low,false
Uy7dHl7r,3ni0wfppjctpbx4ya2wphz5gism608,3ygxwbaf74uxdmtuuw1w4mjuikzc48,Uy7dHl7r,2020-0188,2020-06-04,16:46:23,17:02:55,NA,incomplete,203,race,2,1,left,C_M_01.jpg,C_F_04.jpg,A_M_15.jpg,right,515.1849999674596,false,low,false
Uy7dHl7r,3ni0wfppjctpbx4ya2wphz5gism608,3ygxwbaf74uxdmtuuw1w4mjuikzc48,Uy7dHl7r,2020-0188,2020-06-04,16:46:23,17:02:55,NA,incomplete,204,race,2,1,left,A_M_16.jpg,A_F_07.jpg,C_M_04.jpg,right,704.6950000221841,false,low,false
Uy7dHl7r,3ni0wfppjctpbx4ya2wphz5gism608,3ygxwbaf74uxdmtuuw1w4mjuikzc48,Uy7dHl7r,2020-0188,2020-06-04,16:46:23,17:02:55,NA,incomplete,205,race,2,0,left,A_M_13.jpg,A_F_03.jpg,C_M_04.jpg,left,632.1950000128709,true,low,false
Uy7dHl7r,3ni0wfppjctpbx4ya2wphz5gism608,3ygxwbaf74uxdmtuuw1w4mjuikzc48,Uy7dHl7r,2020-0188,2020-06-04,16:46:23,17:02:55,NA,incomplete,206,race,2,1,left,A_M_09.jpg,A_F_10.jpg,C_M_12.jpg,left,619.5750000188127,true,low,false
Uy7dHl7r,3ni0wfppjctpbx4ya2wphz5gism608,3ygxwbaf74uxdmtuuw1w4mjuikzc48,Uy7dHl7r,2020-0188,2020-06-04,16:46:23,17:02:55,NA,incomplete,207,race,2,1,left,A_F_11.jpg,A_M_05.jpg,C_F_09.jpg,left,578.8349999929778,true,low,false
Uy7dHl7r,3ni0wfppjctpbx4ya2wphz5gism608,3ygxwbaf74uxdmtuuw1w4mjuikzc48,Uy7dHl7r,2020-0188,2020-06-04,16:46:23,17:02:55,NA,incomplete,208,race,2,1,left,A_F_06.jpg,A_M_05.jpg,C_F_02.jpg,right,814.0049999929033,false,low,false
Uy7dHl7r,3ni0wfppjctpbx4ya2wphz5gism608,3ygxwbaf74uxdmtuuw1w4mjuikzc48,Uy7dHl7r,2020-0188,2020-06-04,16:46:23,17:02:55,NA,incomplete,209,race,2,1,right,A_M_12.jpg,C_M_16.jpg,A_F_03.jpg,right,493.4650000068359,true,low,false
Uy7dHl7r,3ni0wfppjctpbx4ya2wphz5gism608,3ygxwbaf74uxdmtuuw1w4mjuikzc48,Uy7dHl7r,2020-0188,2020-06-04,16:46:23,17:02:55,NA,incomplete,210,race,2,1,left,A_M_14.jpg,A_F_08.jpg,C_M_07.jpg,left,561.7499999934807,true,low,false
Uy7dHl7r,3ni0wfppjctpbx4ya2wphz5gism608,3ygxwbaf74uxdmtuuw1w4mjuikzc48,Uy7dHl7r,2020-0188,2020-06-04,16:46:23,17:02:55,NA,incomplete,211,race,2,1,right,A_M_03.jpg,C_M_10.jpg,A_F_04.jpg,right,495.08999998215586,true,low,false
Uy7dHl7r,3ni0wfppjctpbx4ya2wphz5gism608,3ygxwbaf74uxdmtuuw1w4mjuikzc48,Uy7dHl7r,2020-0188,2020-06-04,16:46:23,17:02:55,NA,incomplete,212,race,2,1,right,A_M_12.jpg,C_M_08.jpg,A_F_13.jpg,right,708.0650000134483,true,low,false
Uy7dHl7r,3ni0wfppjctpbx4ya2wphz5gism608,3ygxwbaf74uxdmtuuw1w4mjuikzc48,Uy7dHl7r,2020-0188,2020-06-04,16:46:23,17:02:55,NA,incomplete,213,race,2,0,right,A_F_11.jpg,C_F_13.jpg,A_M_08.jpg,right,752.0950000034645,true,low,false
Uy7dHl7r,3ni0wfppjctpbx4ya2wphz5gism608,3ygxwbaf74uxdmtuuw1w4mjuikzc48,Uy7dHl7r,2020-0188,2020-06-04,16:46:23,17:02:55,NA,incomplete,214,race,2,1,left,A_M_16.jpg,A_F_03.jpg,C_M_08.jpg,left,590.6850000028498,true,low,false
Uy7dHl7r,3ni0wfppjctpbx4ya2wphz5gism608,3ygxwbaf74uxdmtuuw1w4mjuikzc48,Uy7dHl7r,2020-0188,2020-06-04,16:46:23,17:02:55,NA,incomplete,215,race,2,1,left,C_M_10.jpg,C_F_02.jpg,A_M_12.jpg,right,1368.190000008326,false,low,false
Uy7dHl7r,3ni0wfppjctpbx4ya2wphz5gism608,3ygxwbaf74uxdmtuuw1w4mjuikzc48,Uy7dHl7r,2020-0188,2020-06-04,16:46:23,17:02:55,NA,incomplete,216,race,2,1,right,C_M_15.jpg,A_M_05.jpg,C_F_13.jpg,right,705.1900000078604,true,low,false
Uy7dHl7r,3ni0wfppjctpbx4ya2wphz5gism608,3ygxwbaf74uxdmtuuw1w4mjuikzc48,Uy7dHl7r,2020-0188,2020-06-04,16:46:23,17:02:55,NA,incomplete,217,race,2,1,left,A_F_08.jpg,A_M_03.jpg,C_F_10.jpg,left,637.334999977611,true,low,false
Uy7dHl7r,3ni0wfppjctpbx4ya2wphz5gism608,3ygxwbaf74uxdmtuuw1w4mjuikzc48,Uy7dHl7r,2020-0188,2020-06-04,16:46:23,17:02:55,NA,incomplete,218,race,2,1,left,A_M_09.jpg,A_F_14.jpg,C_M_06.jpg,left,1124.8100000084378,true,low,false
Uy7dHl7r,3ni0wfppjctpbx4ya2wphz5gism608,3ygxwbaf74uxdmtuuw1w4mjuikzc48,Uy7dHl7r,2020-0188,2020-06-04,16:46:23,17:02:55,NA,incomplete,219,race,2,1,right,A_M_05.jpg,C_M_16.jpg,A_F_14.jpg,right,567.6749999984168,true,low,false
Uy7dHl7r,3ni0wfppjctpbx4ya2wphz5gism608,3ygxwbaf74uxdmtuuw1w4mjuikzc48,Uy7dHl7r,2020-0188,2020-06-04,16:46:23,17:02:55,NA,incomplete,220,gender,3,1,right,C_M_13.jpg,C_F_11.jpg,A_M_01.jpg,left,560.9249999979511,false,low,false
Uy7dHl7r,3ni0wfppjctpbx4ya2wphz5gism608,3ygxwbaf74uxdmtuuw1w4mjuikzc48,Uy7dHl7r,2020-0188,2020-06-04,16:46:23,17:02:55,NA,incomplete,221,gender,3,1,left,A_F_08.jpg,C_F_14.jpg,A_M_13.jpg,right,710.2249999879859,false,low,false
Uy7dHl7r,3ni0wfppjctpbx4ya2wphz5gism608,3ygxwbaf74uxdmtuuw1w4mjuikzc48,Uy7dHl7r,2020-0188,2020-06-04,16:46:23,17:02:55,NA,incomplete,222,gender,3,0,right,A_M_09.jpg,A_F_08.jpg,C_M_07.jpg,left,490.27000000933185,false,low,false
Uy7dHl7r,3ni0wfppjctpbx4ya2wphz5gism608,3ygxwbaf74uxdmtuuw1w4mjuikzc48,Uy7dHl7r,2020-0188,2020-06-04,16:46:23,17:02:55,NA,incomplete,223,gender,3,1,left,A_M_02.jpg,C_M_13.jpg,A_F_05.jpg,right,984.5750000094995,false,low,false
Uy7dHl7r,3ni0wfppjctpbx4ya2wphz5gism608,3ygxwbaf74uxdmtuuw1w4mjuikzc48,Uy7dHl7r,2020-0188,2020-06-04,16:46:23,17:02:55,NA,incomplete,224,gender,3,1,right,A_M_16.jpg,A_F_06.jpg,C_M_14.jpg,right,933.4149999776855,true,low,false
Uy7dHl7r,3ni0wfppjctpbx4ya2wphz5gism608,3ygxwbaf74uxdmtuuw1w4mjuikzc48,Uy7dHl7r,2020-0188,2020-06-04,16:46:23,17:02:55,NA,incomplete,225,gender,3,1,left,C_F_02.jpg,A_F_01.jpg,C_M_11.jpg,left,426.1949999490753,true,low,false
Uy7dHl7r,3ni0wfppjctpbx4ya2wphz5gism608,3ygxwbaf74uxdmtuuw1w4mjuikzc48,Uy7dHl7r,2020-0188,2020-06-04,16:46:23,17:02:55,NA,incomplete,226,gender,3,0,right,C_F_09.jpg,C_M_01.jpg,A_F_14.jpg,right,509.11500002257526,true,low,false
Uy7dHl7r,3ni0wfppjctpbx4ya2wphz5gism608,3ygxwbaf74uxdmtuuw1w4mjuikzc48,Uy7dHl7r,2020-0188,2020-06-04,16:46:23,17:02:55,NA,incomplete,227,gender,3,1,right,C_F_10.jpg,C_M_04.jpg,A_F_15.jpg,right,508.4300000453368,true,low,false
Uy7dHl7r,3ni0wfppjctpbx4ya2wphz5gism608,3ygxwbaf74uxdmtuuw1w4mjuikzc48,Uy7dHl7r,2020-0188,2020-06-04,16:46:23,17:02:55,NA,incomplete,228,gender,3,1,right,A_M_15.jpg,A_F_06.jpg,C_M_13.jpg,left,628.0399999814108,false,low,false
Uy7dHl7r,3ni0wfppjctpbx4ya2wphz5gism608,3ygxwbaf74uxdmtuuw1w4mjuikzc48,Uy7dHl7r,2020-0188,2020-06-04,16:46:23,17:02:55,NA,incomplete,229,gender,3,1,left,C_M_08.jpg,A_M_12.jpg,C_F_15.jpg,right,612.5849999953061,false,low,false
Uy7dHl7r,3ni0wfppjctpbx4ya2wphz5gism608,3ygxwbaf74uxdmtuuw1w4mjuikzc48,Uy7dHl7r,2020-0188,2020-06-04,16:46:23,17:02:55,NA,incomplete,230,gender,3,1,right,C_M_06.jpg,C_F_05.jpg,A_M_07.jpg,right,1003.9399999659508,true,low,false
Uy7dHl7r,3ni0wfppjctpbx4ya2wphz5gism608,3ygxwbaf74uxdmtuuw1w4mjuikzc48,Uy7dHl7r,2020-0188,2020-06-04,16:46:23,17:02:55,NA,incomplete,231,gender,3,0,left,A_M_10.jpg,C_M_13.jpg,A_F_06.jpg,right,475.1449999748729,false,low,false
Uy7dHl7r,3ni0wfppjctpbx4ya2wphz5gism608,3ygxwbaf74uxdmtuuw1w4mjuikzc48,Uy7dHl7r,2020-0188,2020-06-04,16:46:23,17:02:55,NA,incomplete,232,gender,3,1,left,A_F_08.jpg,C_F_11.jpg,A_M_13.jpg,right,629.1700000292622,false,low,false
Uy7dHl7r,3ni0wfppjctpbx4ya2wphz5gism608,3ygxwbaf74uxdmtuuw1w4mjuikzc48,Uy7dHl7r,2020-0188,2020-06-04,16:46:23,17:02:55,NA,incomplete,233,gender,3,1,right,C_M_12.jpg,C_F_01.jpg,A_M_15.jpg,right,594.7600000072271,true,low,false
Uy7dHl7r,3ni0wfppjctpbx4ya2wphz5gism608,3ygxwbaf74uxdmtuuw1w4mjuikzc48,Uy7dHl7r,2020-0188,2020-06-04,16:46:23,17:02:55,NA,incomplete,234,gender,3,1,right,C_F_03.jpg,C_M_12.jpg,A_F_01.jpg,right,718.5349999926984,true,low,false
Uy7dHl7r,3ni0wfppjctpbx4ya2wphz5gism608,3ygxwbaf74uxdmtuuw1w4mjuikzc48,Uy7dHl7r,2020-0188,2020-06-04,16:46:23,17:02:55,NA,incomplete,235,gender,3,1,left,A_F_08.jpg,C_F_09.jpg,A_M_04.jpg,right,530.7449999963865,false,low,false
Uy7dHl7r,3ni0wfppjctpbx4ya2wphz5gism608,3ygxwbaf74uxdmtuuw1w4mjuikzc48,Uy7dHl7r,2020-0188,2020-06-04,16:46:23,17:02:55,NA,incomplete,236,gender,3,1,right,C_M_02.jpg,C_F_12.jpg,A_M_03.jpg,right,884.1700000339188,true,low,false
Uy7dHl7r,3ni0wfppjctpbx4ya2wphz5gism608,3ygxwbaf74uxdmtuuw1w4mjuikzc48,Uy7dHl7r,2020-0188,2020-06-04,16:46:23,17:02:55,NA,incomplete,237,gender,3,1,right,A_M_07.jpg,A_F_15.jpg,C_M_03.jpg,right,573.5800000256859,true,low,false
Uy7dHl7r,3ni0wfppjctpbx4ya2wphz5gism608,3ygxwbaf74uxdmtuuw1w4mjuikzc48,Uy7dHl7r,2020-0188,2020-06-04,16:46:23,17:02:55,NA,incomplete,238,gender,3,1,right,C_F_08.jpg,C_M_11.jpg,A_F_07.jpg,right,479.0250000078231,true,low,false
Uy7dHl7r,3ni0wfppjctpbx4ya2wphz5gism608,3ygxwbaf74uxdmtuuw1w4mjuikzc48,Uy7dHl7r,2020-0188,2020-06-04,16:46:23,17:02:55,NA,incomplete,239,gender,3,1,left,A_M_06.jpg,C_M_12.jpg,A_F_04.jpg,left,651.659999974072,true,low,false
Uy7dHl7r,3ni0wfppjctpbx4ya2wphz5gism608,3ygxwbaf74uxdmtuuw1w4mjuikzc48,Uy7dHl7r,2020-0188,2020-06-04,16:46:23,17:02:55,NA,NA,instruction example,color,NA,NA,NA,Red_Plus_Stripes_3.jpg,Red_Star_Dots_4.jpg,Green_Plus_Chess_1.jpg,NA,NA,NA,NA,undefined
Uy7dHl7r,3ni0wfppjctpbx4ya2wphz5gism608,3ygxwbaf74uxdmtuuw1w4mjuikzc48,Uy7dHl7r,2020-0188,2020-06-04,16:46:23,17:02:55,NA,NA,instruction example,color,NA,NA,NA,Red_Star_Grid_4.jpg,Blue_Star_Dots_1.jpg,Red_Plus_Chess_3.jpg,NA,NA,NA,NA,undefined
Uy7dHl7r,3ni0wfppjctpbx4ya2wphz5gism608,3ygxwbaf74uxdmtuuw1w4mjuikzc48,Uy7dHl7r,2020-0188,2020-06-04,16:46:23,17:02:55,NA,NA,instruction example,color,NA,NA,NA,C_F_05.jpg,C_M_10.jpg,A_F_11.jpg,NA,NA,NA,NA,undefined
Uy7dHl7r,3ni0wfppjctpbx4ya2wphz5gism608,3ygxwbaf74uxdmtuuw1w4mjuikzc48,Uy7dHl7r,2020-0188,2020-06-04,16:46:23,17:02:55,NA,NA,instruction example,color,NA,NA,NA,C_F_10.jpg,A_F_02.jpg,C_M_14.jpg,NA,NA,NA,NA,undefined
