workerId,hitId,assignmentId,subject,studyid,exp_date,exp_start,exp_end,time_start,time_end,trial,type,sequence,reward_validity,answer,image_top,image_left,image_right,response,response_time,response_acc,volatility,age,race,gender,ethnicity,color,vision,neuro,practice
jhznDFkp,3xabxm4ak4i034slkfn2gjsp1ra8qu,3yhh42uu5fs9h25zo87tv2j4vee0l7,jhznDFkp,2020-0188,2020-06-04,10:42:33,11:07:55,NA,incomplete,0,filling,0,1,left,Purple_Circle_Chess_4.jpg,Red_Plus_Chess_1.jpg,Green_Star_Grid_4.jpg,right,701.1499999789521,false,NA,NA,NA,NA,NA,NA,NA,NA,true
jhznDFkp,3xabxm4ak4i034slkfn2gjsp1ra8qu,3yhh42uu5fs9h25zo87tv2j4vee0l7,jhznDFkp,2020-0188,2020-06-04,10:42:33,11:07:55,NA,incomplete,1,filling,0,1,left,Blue_Star_Stripes_3.jpg,Green_Plus_Stripes_1.jpg,Red_Triangle_Dots_3.jpg,left,735.880000051111,true,NA,NA,NA,NA,NA,NA,NA,NA,true
jhznDFkp,3xabxm4ak4i034slkfn2gjsp1ra8qu,3yhh42uu5fs9h25zo87tv2j4vee0l7,jhznDFkp,2020-0188,2020-06-04,10:42:33,11:07:55,NA,incomplete,2,filling,0,1,right,Blue_Plus_Chess_3.jpg,Red_Triangle_Stripes_3.jpg,Green_Circle_Chess_1.jpg,right,677.2000000346452,true,NA,NA,NA,NA,NA,NA,NA,NA,true
jhznDFkp,3xabxm4ak4i034slkfn2gjsp1ra8qu,3yhh42uu5fs9h25zo87tv2j4vee0l7,jhznDFkp,2020-0188,2020-06-04,10:42:33,11:07:55,NA,incomplete,3,filling,0,0,left,Green_Circle_Dots_2.jpg,Blue_Triangle_Dots_1.jpg,Purple_Star_Stripes_2.jpg,left,688.5449999244884,true,NA,NA,NA,NA,NA,NA,NA,NA,true
jhznDFkp,3xabxm4ak4i034slkfn2gjsp1ra8qu,3yhh42uu5fs9h25zo87tv2j4vee0l7,jhznDFkp,2020-0188,2020-06-04,10:42:33,11:07:55,NA,incomplete,4,filling,0,1,left,Purple_Plus_Stripes_1.jpg,Red_Star_Stripes_2.jpg,Blue_Triangle_Chess_1.jpg,left,792.81000001356,true,NA,NA,NA,NA,NA,NA,NA,NA,true
jhznDFkp,3xabxm4ak4i034slkfn2gjsp1ra8qu,3yhh42uu5fs9h25zo87tv2j4vee0l7,jhznDFkp,2020-0188,2020-06-04,10:42:33,11:07:55,NA,incomplete,5,filling,0,1,left,Green_Star_Chess_2.jpg,Purple_Plus_Chess_4.jpg,Red_Triangle_Grid_2.jpg,left,770.6699999980628,true,NA,NA,NA,NA,NA,NA,NA,NA,true
jhznDFkp,3xabxm4ak4i034slkfn2gjsp1ra8qu,3yhh42uu5fs9h25zo87tv2j4vee0l7,jhznDFkp,2020-0188,2020-06-04,10:42:33,11:07:55,NA,incomplete,6,filling,0,1,left,Blue_Star_Grid_3.jpg,Purple_Plus_Grid_2.jpg,Red_Triangle_Dots_3.jpg,left,616.4199999766424,true,NA,NA,NA,NA,NA,NA,NA,NA,true
jhznDFkp,3xabxm4ak4i034slkfn2gjsp1ra8qu,3yhh42uu5fs9h25zo87tv2j4vee0l7,jhznDFkp,2020-0188,2020-06-04,10:42:33,11:07:55,NA,incomplete,7,filling,0,1,right,Red_Circle_Dots_3.jpg,Blue_Triangle_Stripes_3.jpg,Purple_Plus_Dots_4.jpg,left,558.9700000127777,false,NA,NA,NA,NA,NA,NA,NA,NA,true
jhznDFkp,3xabxm4ak4i034slkfn2gjsp1ra8qu,3yhh42uu5fs9h25zo87tv2j4vee0l7,jhznDFkp,2020-0188,2020-06-04,10:42:33,11:07:55,NA,incomplete,8,filling,0,0,right,Red_Plus_Grid_3.jpg,Purple_Circle_Dots_3.jpg,Blue_Star_Grid_1.jpg,right,659.9100000457838,true,NA,NA,NA,NA,NA,NA,NA,NA,true
jhznDFkp,3xabxm4ak4i034slkfn2gjsp1ra8qu,3yhh42uu5fs9h25zo87tv2j4vee0l7,jhznDFkp,2020-0188,2020-06-04,10:42:33,11:07:55,NA,incomplete,9,filling,0,1,left,Red_Star_Chess_1.jpg,Blue_Circle_Chess_2.jpg,Green_Plus_Grid_1.jpg,left,631.7549999803305,true,NA,NA,NA,NA,NA,NA,NA,NA,true
jhznDFkp,3xabxm4ak4i034slkfn2gjsp1ra8qu,3yhh42uu5fs9h25zo87tv2j4vee0l7,jhznDFkp,2020-0188,2020-06-04,10:42:33,11:07:55,NA,incomplete,10,filling,0,0,left,Red_Star_Chess_4.jpg,Blue_Circle_Chess_1.jpg,Purple_Triangle_Stripes_4.jpg,left,757.4599999934435,true,NA,NA,NA,NA,NA,NA,NA,NA,true
jhznDFkp,3xabxm4ak4i034slkfn2gjsp1ra8qu,3yhh42uu5fs9h25zo87tv2j4vee0l7,jhznDFkp,2020-0188,2020-06-04,10:42:33,11:07:55,NA,incomplete,11,filling,0,1,right,Red_Triangle_Grid_2.jpg,Green_Star_Chess_2.jpg,Blue_Plus_Grid_4.jpg,right,759.4749999698251,true,NA,NA,NA,NA,NA,NA,NA,NA,true
jhznDFkp,3xabxm4ak4i034slkfn2gjsp1ra8qu,3yhh42uu5fs9h25zo87tv2j4vee0l7,jhznDFkp,2020-0188,2020-06-04,10:42:33,11:07:55,NA,incomplete,12,filling,0,1,right,Blue_Plus_Dots_4.jpg,Red_Triangle_Grid_4.jpg,Purple_Star_Dots_3.jpg,right,784.3049999792129,true,NA,NA,NA,NA,NA,NA,NA,NA,true
jhznDFkp,3xabxm4ak4i034slkfn2gjsp1ra8qu,3yhh42uu5fs9h25zo87tv2j4vee0l7,jhznDFkp,2020-0188,2020-06-04,10:42:33,11:07:55,NA,incomplete,13,filling,0,1,right,Blue_Plus_Dots_4.jpg,Green_Star_Grid_4.jpg,Purple_Triangle_Dots_3.jpg,right,812.474999926053,true,NA,NA,NA,NA,NA,NA,NA,NA,true
jhznDFkp,3xabxm4ak4i034slkfn2gjsp1ra8qu,3yhh42uu5fs9h25zo87tv2j4vee0l7,jhznDFkp,2020-0188,2020-06-04,10:42:33,11:07:55,NA,incomplete,14,filling,0,1,right,Blue_Plus_Chess_3.jpg,Green_Triangle_Stripes_3.jpg,Red_Circle_Chess_2.jpg,right,662.7050000242889,true,NA,NA,NA,NA,NA,NA,NA,NA,true
jhznDFkp,3xabxm4ak4i034slkfn2gjsp1ra8qu,3yhh42uu5fs9h25zo87tv2j4vee0l7,jhznDFkp,2020-0188,2020-06-04,10:42:33,11:07:55,NA,incomplete,15,filling,0,0,right,Blue_Circle_Grid_4.jpg,Purple_Plus_Chess_4.jpg,Green_Star_Grid_3.jpg,left,731.7249999614432,false,NA,NA,NA,NA,NA,NA,NA,NA,true
jhznDFkp,3xabxm4ak4i034slkfn2gjsp1ra8qu,3yhh42uu5fs9h25zo87tv2j4vee0l7,jhznDFkp,2020-0188,2020-06-04,10:42:33,11:07:55,NA,incomplete,16,filling,0,1,left,Red_Triangle_Grid_3.jpg,Green_Star_Grid_1.jpg,Purple_Circle_Dots_3.jpg,left,760.8350000809878,true,NA,NA,NA,NA,NA,NA,NA,NA,true
jhznDFkp,3xabxm4ak4i034slkfn2gjsp1ra8qu,3yhh42uu5fs9h25zo87tv2j4vee0l7,jhznDFkp,2020-0188,2020-06-04,10:42:33,11:07:55,NA,incomplete,17,filling,0,1,left,Green_Circle_Dots_2.jpg,Red_Star_Dots_1.jpg,Blue_Plus_Stripes_2.jpg,left,864.6949999965727,true,NA,NA,NA,NA,NA,NA,NA,NA,true
jhznDFkp,3xabxm4ak4i034slkfn2gjsp1ra8qu,3yhh42uu5fs9h25zo87tv2j4vee0l7,jhznDFkp,2020-0188,2020-06-04,10:42:33,11:07:55,NA,incomplete,18,filling,0,0,right,Blue_Circle_Grid_4.jpg,Purple_Plus_Stripes_4.jpg,Red_Star_Grid_3.jpg,right,621.0549999959767,true,NA,NA,NA,NA,NA,NA,NA,NA,true
jhznDFkp,3xabxm4ak4i034slkfn2gjsp1ra8qu,3yhh42uu5fs9h25zo87tv2j4vee0l7,jhznDFkp,2020-0188,2020-06-04,10:42:33,11:07:55,NA,incomplete,19,filling,0,1,right,Red_Circle_Grid_3.jpg,Green_Star_Dots_3.jpg,Purple_Triangle_Grid_4.jpg,right,600.6399999605492,true,NA,NA,NA,NA,NA,NA,NA,NA,true
jhznDFkp,3xabxm4ak4i034slkfn2gjsp1ra8qu,3yhh42uu5fs9h25zo87tv2j4vee0l7,jhznDFkp,2020-0188,2020-06-04,10:42:33,11:07:55,NA,incomplete,20,number,1,0,right,Purple_Plus_Chess_3.jpg,Red_Triangle_Chess_4.jpg,Green_Circle_Grid_3.jpg,right,1001.4550000196323,true,NA,NA,NA,NA,NA,NA,NA,NA,true
jhznDFkp,3xabxm4ak4i034slkfn2gjsp1ra8qu,3yhh42uu5fs9h25zo87tv2j4vee0l7,jhznDFkp,2020-0188,2020-06-04,10:42:33,11:07:55,NA,incomplete,21,number,1,1,left,Purple_Circle_Grid_3.jpg,Green_Triangle_Stripes_3.jpg,Blue_Plus_Grid_4.jpg,left,693.5649999650195,true,NA,NA,NA,NA,NA,NA,NA,NA,true
jhznDFkp,3xabxm4ak4i034slkfn2gjsp1ra8qu,3yhh42uu5fs9h25zo87tv2j4vee0l7,jhznDFkp,2020-0188,2020-06-04,10:42:33,11:07:55,NA,incomplete,22,number,1,1,right,Green_Triangle_Grid_3.jpg,Blue_Star_Grid_2.jpg,Red_Plus_Stripes_3.jpg,right,623.0550000909716,true,NA,NA,NA,NA,NA,NA,NA,NA,true
jhznDFkp,3xabxm4ak4i034slkfn2gjsp1ra8qu,3yhh42uu5fs9h25zo87tv2j4vee0l7,jhznDFkp,2020-0188,2020-06-04,10:42:33,11:07:55,NA,incomplete,23,number,1,0,right,Red_Triangle_Grid_1.jpg,Blue_Star_Grid_3.jpg,Green_Circle_Dots_1.jpg,right,529.0149999782443,true,NA,NA,NA,NA,NA,NA,NA,NA,true
jhznDFkp,3xabxm4ak4i034slkfn2gjsp1ra8qu,3yhh42uu5fs9h25zo87tv2j4vee0l7,jhznDFkp,2020-0188,2020-06-04,10:42:33,11:07:55,NA,incomplete,24,number,1,1,left,Blue_Circle_Chess_1.jpg,Red_Plus_Grid_1.jpg,Green_Triangle_Chess_2.jpg,left,664.9699999252334,true,NA,NA,NA,NA,NA,NA,NA,NA,true
jhznDFkp,3xabxm4ak4i034slkfn2gjsp1ra8qu,3yhh42uu5fs9h25zo87tv2j4vee0l7,jhznDFkp,2020-0188,2020-06-04,10:42:33,11:07:55,NA,incomplete,25,number,1,1,right,Red_Triangle_Grid_1.jpg,Purple_Star_Grid_4.jpg,Green_Plus_Chess_1.jpg,right,561.9599999627098,true,NA,NA,NA,NA,NA,NA,NA,NA,true
jhznDFkp,3xabxm4ak4i034slkfn2gjsp1ra8qu,3yhh42uu5fs9h25zo87tv2j4vee0l7,jhznDFkp,2020-0188,2020-06-04,10:42:33,11:07:55,NA,incomplete,26,number,1,1,right,Purple_Triangle_Chess_1.jpg,Red_Plus_Chess_4.jpg,Blue_Circle_Stripes_1.jpg,right,500.5250000394881,true,NA,NA,NA,NA,NA,NA,NA,NA,true
jhznDFkp,3xabxm4ak4i034slkfn2gjsp1ra8qu,3yhh42uu5fs9h25zo87tv2j4vee0l7,jhznDFkp,2020-0188,2020-06-04,10:42:33,11:07:55,NA,incomplete,27,number,1,1,right,Purple_Triangle_Stripes_2.jpg,Blue_Circle_Stripes_3.jpg,Red_Plus_Dots_2.jpg,left,788.5049999458715,false,NA,NA,NA,NA,NA,NA,NA,NA,true
jhznDFkp,3xabxm4ak4i034slkfn2gjsp1ra8qu,3yhh42uu5fs9h25zo87tv2j4vee0l7,jhznDFkp,2020-0188,2020-06-04,10:42:33,11:07:55,NA,incomplete,28,number,1,1,right,Red_Triangle_Dots_4.jpg,Green_Circle_Dots_3.jpg,Purple_Plus_Chess_4.jpg,right,818.4849999379367,true,NA,NA,NA,NA,NA,NA,NA,NA,true
jhznDFkp,3xabxm4ak4i034slkfn2gjsp1ra8qu,3yhh42uu5fs9h25zo87tv2j4vee0l7,jhznDFkp,2020-0188,2020-06-04,10:42:33,11:07:55,NA,incomplete,29,number,1,1,right,Red_Circle_Chess_3.jpg,Purple_Plus_Chess_1.jpg,Green_Star_Stripes_3.jpg,right,576.7250000499189,true,NA,NA,NA,NA,NA,NA,NA,NA,true
jhznDFkp,3xabxm4ak4i034slkfn2gjsp1ra8qu,3yhh42uu5fs9h25zo87tv2j4vee0l7,jhznDFkp,2020-0188,2020-06-04,10:42:33,11:07:55,NA,incomplete,30,number,1,1,left,Red_Plus_Grid_1.jpg,Green_Star_Dots_1.jpg,Purple_Circle_Grid_2.jpg,left,450.6399999372661,true,NA,NA,NA,NA,NA,NA,NA,NA,true
jhznDFkp,3xabxm4ak4i034slkfn2gjsp1ra8qu,3yhh42uu5fs9h25zo87tv2j4vee0l7,jhznDFkp,2020-0188,2020-06-04,10:42:33,11:07:55,NA,incomplete,31,number,1,1,left,Red_Star_Stripes_3.jpg,Purple_Circle_Grid_3.jpg,Blue_Triangle_Stripes_1.jpg,left,692.5500000361353,true,NA,NA,NA,NA,NA,NA,NA,NA,true
jhznDFkp,3xabxm4ak4i034slkfn2gjsp1ra8qu,3yhh42uu5fs9h25zo87tv2j4vee0l7,jhznDFkp,2020-0188,2020-06-04,10:42:33,11:07:55,NA,incomplete,32,number,1,1,right,Red_Star_Stripes_2.jpg,Purple_Circle_Stripes_3.jpg,Blue_Triangle_Chess_2.jpg,right,638.5200000368059,true,NA,NA,NA,NA,NA,NA,NA,NA,true
jhznDFkp,3xabxm4ak4i034slkfn2gjsp1ra8qu,3yhh42uu5fs9h25zo87tv2j4vee0l7,jhznDFkp,2020-0188,2020-06-04,10:42:33,11:07:55,NA,incomplete,33,number,1,0,left,Green_Plus_Grid_3.jpg,Purple_Star_Dots_3.jpg,Red_Triangle_Grid_1.jpg,left,604.674999951385,true,NA,NA,NA,NA,NA,NA,NA,NA,true
jhznDFkp,3xabxm4ak4i034slkfn2gjsp1ra8qu,3yhh42uu5fs9h25zo87tv2j4vee0l7,jhznDFkp,2020-0188,2020-06-04,10:42:33,11:07:55,NA,incomplete,34,number,1,1,right,Purple_Plus_Dots_1.jpg,Green_Star_Dots_4.jpg,Red_Triangle_Stripes_1.jpg,right,578.2749999780208,true,NA,NA,NA,NA,NA,NA,NA,NA,true
jhznDFkp,3xabxm4ak4i034slkfn2gjsp1ra8qu,3yhh42uu5fs9h25zo87tv2j4vee0l7,jhznDFkp,2020-0188,2020-06-04,10:42:33,11:07:55,NA,incomplete,35,number,1,1,left,Green_Plus_Dots_3.jpg,Blue_Circle_Chess_3.jpg,Red_Triangle_Dots_2.jpg,left,494.85500005539507,true,NA,NA,NA,NA,NA,NA,NA,NA,true
jhznDFkp,3xabxm4ak4i034slkfn2gjsp1ra8qu,3yhh42uu5fs9h25zo87tv2j4vee0l7,jhznDFkp,2020-0188,2020-06-04,10:42:33,11:07:55,NA,incomplete,36,number,1,1,left,Green_Triangle_Chess_3.jpg,Purple_Star_Dots_3.jpg,Blue_Circle_Chess_1.jpg,left,576.714999973774,true,NA,NA,NA,NA,NA,NA,NA,NA,true
jhznDFkp,3xabxm4ak4i034slkfn2gjsp1ra8qu,3yhh42uu5fs9h25zo87tv2j4vee0l7,jhznDFkp,2020-0188,2020-06-04,10:42:33,11:07:55,NA,incomplete,37,number,1,1,left,Purple_Star_Stripes_3.jpg,Green_Circle_Chess_3.jpg,Blue_Plus_Stripes_1.jpg,left,469.80000007897615,true,NA,NA,NA,NA,NA,NA,NA,NA,true
jhznDFkp,3xabxm4ak4i034slkfn2gjsp1ra8qu,3yhh42uu5fs9h25zo87tv2j4vee0l7,jhznDFkp,2020-0188,2020-06-04,10:42:33,11:07:55,NA,incomplete,38,number,1,1,left,Purple_Circle_Grid_2.jpg,Red_Star_Dots_2.jpg,Blue_Plus_Grid_1.jpg,left,516.5999999735504,true,NA,NA,NA,NA,NA,NA,NA,NA,true
jhznDFkp,3xabxm4ak4i034slkfn2gjsp1ra8qu,3yhh42uu5fs9h25zo87tv2j4vee0l7,jhznDFkp,2020-0188,2020-06-04,10:42:33,11:07:55,NA,incomplete,39,number,1,1,left,Purple_Star_Stripes_3.jpg,Blue_Plus_Dots_3.jpg,Green_Circle_Stripes_1.jpg,left,413.3099999744445,true,NA,NA,NA,NA,NA,NA,NA,NA,true
jhznDFkp,3xabxm4ak4i034slkfn2gjsp1ra8qu,3yhh42uu5fs9h25zo87tv2j4vee0l7,jhznDFkp,2020-0188,2020-06-04,10:42:33,11:07:55,NA,incomplete,0,filling,0,1,left,Green_Circle_Stripes_1.jpg,Blue_Star_Stripes_2.jpg,Red_Triangle_Dots_1.jpg,right,752.0399999339134,false,low,NA,NA,NA,NA,NA,NA,NA,false
jhznDFkp,3xabxm4ak4i034slkfn2gjsp1ra8qu,3yhh42uu5fs9h25zo87tv2j4vee0l7,jhznDFkp,2020-0188,2020-06-04,10:42:33,11:07:55,NA,incomplete,1,filling,0,1,left,Green_Circle_Dots_4.jpg,Purple_Star_Dots_3.jpg,Red_Plus_Stripes_4.jpg,right,604.9399999901652,false,low,NA,NA,NA,NA,NA,NA,NA,false
jhznDFkp,3xabxm4ak4i034slkfn2gjsp1ra8qu,3yhh42uu5fs9h25zo87tv2j4vee0l7,jhznDFkp,2020-0188,2020-06-04,10:42:33,11:07:55,NA,incomplete,2,filling,0,1,left,Blue_Star_Chess_1.jpg,Green_Circle_Chess_3.jpg,Purple_Plus_Grid_1.jpg,left,665.4850000049919,true,low,NA,NA,NA,NA,NA,NA,NA,false
jhznDFkp,3xabxm4ak4i034slkfn2gjsp1ra8qu,3yhh42uu5fs9h25zo87tv2j4vee0l7,jhznDFkp,2020-0188,2020-06-04,10:42:33,11:07:55,NA,incomplete,3,filling,0,1,right,Red_Triangle_Stripes_3.jpg,Purple_Circle_Dots_3.jpg,Green_Star_Stripes_1.jpg,right,691.8300000252202,true,low,NA,NA,NA,NA,NA,NA,NA,false
jhznDFkp,3xabxm4ak4i034slkfn2gjsp1ra8qu,3yhh42uu5fs9h25zo87tv2j4vee0l7,jhznDFkp,2020-0188,2020-06-04,10:42:33,11:07:55,NA,incomplete,4,filling,0,1,right,Green_Plus_Chess_2.jpg,Blue_Star_Grid_2.jpg,Purple_Triangle_Chess_1.jpg,right,762.0200000237674,true,low,NA,NA,NA,NA,NA,NA,NA,false
jhznDFkp,3xabxm4ak4i034slkfn2gjsp1ra8qu,3yhh42uu5fs9h25zo87tv2j4vee0l7,jhznDFkp,2020-0188,2020-06-04,10:42:33,11:07:55,NA,incomplete,5,filling,0,1,left,Blue_Triangle_Dots_2.jpg,Green_Plus_Dots_3.jpg,Red_Circle_Stripes_2.jpg,left,968.5049999970943,true,low,NA,NA,NA,NA,NA,NA,NA,false
jhznDFkp,3xabxm4ak4i034slkfn2gjsp1ra8qu,3yhh42uu5fs9h25zo87tv2j4vee0l7,jhznDFkp,2020-0188,2020-06-04,10:42:33,11:07:55,NA,incomplete,6,filling,0,1,left,Red_Plus_Grid_4.jpg,Blue_Circle_Grid_1.jpg,Purple_Triangle_Dots_4.jpg,left,628.9450000040233,true,low,NA,NA,NA,NA,NA,NA,NA,false
jhznDFkp,3xabxm4ak4i034slkfn2gjsp1ra8qu,3yhh42uu5fs9h25zo87tv2j4vee0l7,jhznDFkp,2020-0188,2020-06-04,10:42:33,11:07:55,NA,incomplete,7,filling,0,1,right,Green_Circle_Grid_2.jpg,Blue_Plus_Chess_2.jpg,Red_Star_Grid_1.jpg,left,610.8649999368936,false,low,NA,NA,NA,NA,NA,NA,NA,false
jhznDFkp,3xabxm4ak4i034slkfn2gjsp1ra8qu,3yhh42uu5fs9h25zo87tv2j4vee0l7,jhznDFkp,2020-0188,2020-06-04,10:42:33,11:07:55,NA,incomplete,8,filling,0,1,right,Blue_Circle_Grid_4.jpg,Green_Plus_Dots_4.jpg,Red_Triangle_Grid_1.jpg,right,592.4299999605864,true,low,NA,NA,NA,NA,NA,NA,NA,false
jhznDFkp,3xabxm4ak4i034slkfn2gjsp1ra8qu,3yhh42uu5fs9h25zo87tv2j4vee0l7,jhznDFkp,2020-0188,2020-06-04,10:42:33,11:07:55,NA,incomplete,9,filling,0,0,right,Green_Plus_Chess_3.jpg,Purple_Circle_Dots_3.jpg,Blue_Star_Chess_4.jpg,right,689.49000001885,true,low,NA,NA,NA,NA,NA,NA,NA,false
jhznDFkp,3xabxm4ak4i034slkfn2gjsp1ra8qu,3yhh42uu5fs9h25zo87tv2j4vee0l7,jhznDFkp,2020-0188,2020-06-04,10:42:33,11:07:55,NA,incomplete,10,filling,0,1,right,Green_Circle_Chess_4.jpg,Blue_Star_Dots_4.jpg,Purple_Triangle_Chess_2.jpg,left,659.1350000817329,false,low,NA,NA,NA,NA,NA,NA,NA,false
jhznDFkp,3xabxm4ak4i034slkfn2gjsp1ra8qu,3yhh42uu5fs9h25zo87tv2j4vee0l7,jhznDFkp,2020-0188,2020-06-04,10:42:33,11:07:55,NA,incomplete,11,filling,0,1,right,Red_Circle_Chess_2.jpg,Green_Triangle_Stripes_2.jpg,Blue_Plus_Chess_3.jpg,right,591.0450000083074,true,low,NA,NA,NA,NA,NA,NA,NA,false
jhznDFkp,3xabxm4ak4i034slkfn2gjsp1ra8qu,3yhh42uu5fs9h25zo87tv2j4vee0l7,jhznDFkp,2020-0188,2020-06-04,10:42:33,11:07:55,NA,incomplete,12,filling,0,0,right,Green_Star_Chess_2.jpg,Red_Circle_Stripes_2.jpg,Purple_Plus_Chess_1.jpg,right,695.2900000615045,true,low,NA,NA,NA,NA,NA,NA,NA,false
jhznDFkp,3xabxm4ak4i034slkfn2gjsp1ra8qu,3yhh42uu5fs9h25zo87tv2j4vee0l7,jhznDFkp,2020-0188,2020-06-04,10:42:33,11:07:55,NA,incomplete,13,filling,0,1,left,Purple_Circle_Chess_4.jpg,Green_Star_Chess_2.jpg,Blue_Plus_Dots_4.jpg,left,844.2450000438839,true,low,NA,NA,NA,NA,NA,NA,NA,false
jhznDFkp,3xabxm4ak4i034slkfn2gjsp1ra8qu,3yhh42uu5fs9h25zo87tv2j4vee0l7,jhznDFkp,2020-0188,2020-06-04,10:42:33,11:07:55,NA,incomplete,14,filling,0,0,left,Blue_Plus_Stripes_3.jpg,Purple_Triangle_Stripes_1.jpg,Red_Circle_Grid_3.jpg,left,1309.8900000331923,true,low,NA,NA,NA,NA,NA,NA,NA,false
jhznDFkp,3xabxm4ak4i034slkfn2gjsp1ra8qu,3yhh42uu5fs9h25zo87tv2j4vee0l7,jhznDFkp,2020-0188,2020-06-04,10:42:33,11:07:55,NA,incomplete,15,filling,0,0,right,Blue_Circle_Stripes_2.jpg,Purple_Plus_Chess_2.jpg,Red_Triangle_Stripes_4.jpg,right,631.8149999715388,true,low,NA,NA,NA,NA,NA,NA,NA,false
jhznDFkp,3xabxm4ak4i034slkfn2gjsp1ra8qu,3yhh42uu5fs9h25zo87tv2j4vee0l7,jhznDFkp,2020-0188,2020-06-04,10:42:33,11:07:55,NA,incomplete,16,filling,0,0,left,Purple_Star_Stripes_2.jpg,Green_Plus_Stripes_1.jpg,Red_Circle_Grid_2.jpg,right,587.6649999991059,false,low,NA,NA,NA,NA,NA,NA,NA,false
jhznDFkp,3xabxm4ak4i034slkfn2gjsp1ra8qu,3yhh42uu5fs9h25zo87tv2j4vee0l7,jhznDFkp,2020-0188,2020-06-04,10:42:33,11:07:55,NA,incomplete,17,filling,0,1,right,Purple_Triangle_Chess_1.jpg,Red_Plus_Dots_1.jpg,Green_Star_Chess_3.jpg,left,661.3949999446049,false,low,NA,NA,NA,NA,NA,NA,NA,false
jhznDFkp,3xabxm4ak4i034slkfn2gjsp1ra8qu,3yhh42uu5fs9h25zo87tv2j4vee0l7,jhznDFkp,2020-0188,2020-06-04,10:42:33,11:07:55,NA,incomplete,18,filling,0,1,right,Red_Plus_Grid_2.jpg,Green_Triangle_Dots_2.jpg,Blue_Star_Grid_3.jpg,right,1997.8699999628589,true,low,NA,NA,NA,NA,NA,NA,NA,false
jhznDFkp,3xabxm4ak4i034slkfn2gjsp1ra8qu,3yhh42uu5fs9h25zo87tv2j4vee0l7,jhznDFkp,2020-0188,2020-06-04,10:42:33,11:07:55,NA,incomplete,19,filling,0,1,left,Blue_Circle_Chess_1.jpg,Red_Plus_Chess_3.jpg,Green_Triangle_Stripes_1.jpg,left,1874.6599999722093,true,low,NA,NA,NA,NA,NA,NA,NA,false
jhznDFkp,3xabxm4ak4i034slkfn2gjsp1ra8qu,3yhh42uu5fs9h25zo87tv2j4vee0l7,jhznDFkp,2020-0188,2020-06-04,10:42:33,11:07:55,NA,incomplete,20,filling,0,1,left,Green_Circle_Chess_1.jpg,Red_Triangle_Chess_2.jpg,Purple_Star_Grid_1.jpg,left,1105.8500000508502,true,low,NA,NA,NA,NA,NA,NA,NA,false
jhznDFkp,3xabxm4ak4i034slkfn2gjsp1ra8qu,3yhh42uu5fs9h25zo87tv2j4vee0l7,jhznDFkp,2020-0188,2020-06-04,10:42:33,11:07:55,NA,incomplete,21,filling,0,0,right,Blue_Plus_Stripes_1.jpg,Red_Triangle_Dots_1.jpg,Green_Star_Stripes_4.jpg,right,838.1750000407919,true,low,NA,NA,NA,NA,NA,NA,NA,false
jhznDFkp,3xabxm4ak4i034slkfn2gjsp1ra8qu,3yhh42uu5fs9h25zo87tv2j4vee0l7,jhznDFkp,2020-0188,2020-06-04,10:42:33,11:07:55,NA,incomplete,22,filling,0,1,right,Red_Circle_Grid_3.jpg,Blue_Star_Stripes_3.jpg,Purple_Triangle_Grid_4.jpg,right,1257.5049999868497,true,low,NA,NA,NA,NA,NA,NA,NA,false
jhznDFkp,3xabxm4ak4i034slkfn2gjsp1ra8qu,3yhh42uu5fs9h25zo87tv2j4vee0l7,jhznDFkp,2020-0188,2020-06-04,10:42:33,11:07:55,NA,incomplete,23,filling,0,0,right,Red_Star_Grid_4.jpg,Green_Triangle_Stripes_4.jpg,Blue_Plus_Grid_1.jpg,right,1665.830000070855,true,low,NA,NA,NA,NA,NA,NA,NA,false
jhznDFkp,3xabxm4ak4i034slkfn2gjsp1ra8qu,3yhh42uu5fs9h25zo87tv2j4vee0l7,jhznDFkp,2020-0188,2020-06-04,10:42:33,11:07:55,NA,incomplete,24,filling,0,0,right,Green_Triangle_Chess_3.jpg,Red_Plus_Grid_3.jpg,Blue_Circle_Chess_1.jpg,right,1306.1200000811368,true,low,NA,NA,NA,NA,NA,NA,NA,false
jhznDFkp,3xabxm4ak4i034slkfn2gjsp1ra8qu,3yhh42uu5fs9h25zo87tv2j4vee0l7,jhznDFkp,2020-0188,2020-06-04,10:42:33,11:07:55,NA,incomplete,25,filling,0,0,right,Red_Star_Dots_4.jpg,Purple_Plus_Stripes_4.jpg,Blue_Triangle_Dots_3.jpg,left,858.405000064522,false,low,NA,NA,NA,NA,NA,NA,NA,false
jhznDFkp,3xabxm4ak4i034slkfn2gjsp1ra8qu,3yhh42uu5fs9h25zo87tv2j4vee0l7,jhznDFkp,2020-0188,2020-06-04,10:42:33,11:07:55,NA,incomplete,26,filling,0,1,left,Red_Triangle_Chess_2.jpg,Purple_Circle_Chess_1.jpg,Blue_Plus_Dots_2.jpg,right,1065.3450000099838,false,low,NA,NA,NA,NA,NA,NA,NA,false
jhznDFkp,3xabxm4ak4i034slkfn2gjsp1ra8qu,3yhh42uu5fs9h25zo87tv2j4vee0l7,jhznDFkp,2020-0188,2020-06-04,10:42:33,11:07:55,NA,incomplete,27,filling,0,0,right,Purple_Circle_Chess_4.jpg,Green_Plus_Dots_4.jpg,Blue_Triangle_Chess_3.jpg,none,0,false,low,NA,NA,NA,NA,NA,NA,NA,false
jhznDFkp,3xabxm4ak4i034slkfn2gjsp1ra8qu,3yhh42uu5fs9h25zo87tv2j4vee0l7,jhznDFkp,2020-0188,2020-06-04,10:42:33,11:07:55,NA,incomplete,28,filling,0,1,right,Purple_Star_Stripes_3.jpg,Blue_Plus_Grid_3.jpg,Red_Circle_Stripes_1.jpg,right,1029.2050000280142,true,low,NA,NA,NA,NA,NA,NA,NA,false
jhznDFkp,3xabxm4ak4i034slkfn2gjsp1ra8qu,3yhh42uu5fs9h25zo87tv2j4vee0l7,jhznDFkp,2020-0188,2020-06-04,10:42:33,11:07:55,NA,incomplete,29,filling,0,1,right,Purple_Circle_Chess_2.jpg,Blue_Star_Dots_2.jpg,Green_Triangle_Chess_3.jpg,right,1150.9749999968335,true,low,NA,NA,NA,NA,NA,NA,NA,false
jhznDFkp,3xabxm4ak4i034slkfn2gjsp1ra8qu,3yhh42uu5fs9h25zo87tv2j4vee0l7,jhznDFkp,2020-0188,2020-06-04,10:42:33,11:07:55,NA,incomplete,30,number,1,1,left,Purple_Circle_Dots_1.jpg,Green_Triangle_Grid_1.jpg,Blue_Plus_Dots_3.jpg,left,892.8150000283495,true,low,NA,NA,NA,NA,NA,NA,NA,false
jhznDFkp,3xabxm4ak4i034slkfn2gjsp1ra8qu,3yhh42uu5fs9h25zo87tv2j4vee0l7,jhznDFkp,2020-0188,2020-06-04,10:42:33,11:07:55,NA,incomplete,31,number,1,1,right,Purple_Circle_Chess_4.jpg,Blue_Star_Chess_1.jpg,Green_Triangle_Dots_4.jpg,right,845.90999991633,true,low,NA,NA,NA,NA,NA,NA,NA,false
jhznDFkp,3xabxm4ak4i034slkfn2gjsp1ra8qu,3yhh42uu5fs9h25zo87tv2j4vee0l7,jhznDFkp,2020-0188,2020-06-04,10:42:33,11:07:55,NA,incomplete,32,number,1,0,left,Red_Plus_Chess_4.jpg,Blue_Triangle_Dots_4.jpg,Green_Circle_Chess_2.jpg,right,1237.7150000538677,false,low,NA,NA,NA,NA,NA,NA,NA,false
jhznDFkp,3xabxm4ak4i034slkfn2gjsp1ra8qu,3yhh42uu5fs9h25zo87tv2j4vee0l7,jhznDFkp,2020-0188,2020-06-04,10:42:33,11:07:55,NA,incomplete,33,number,1,1,left,Blue_Star_Grid_1.jpg,Purple_Plus_Chess_1.jpg,Green_Circle_Grid_2.jpg,right,1681.9499999983236,false,low,NA,NA,NA,NA,NA,NA,NA,false
jhznDFkp,3xabxm4ak4i034slkfn2gjsp1ra8qu,3yhh42uu5fs9h25zo87tv2j4vee0l7,jhznDFkp,2020-0188,2020-06-04,10:42:33,11:07:55,NA,incomplete,34,number,1,1,right,Red_Plus_Chess_3.jpg,Green_Circle_Chess_2.jpg,Blue_Triangle_Dots_3.jpg,none,0,false,low,NA,NA,NA,NA,NA,NA,NA,false
jhznDFkp,3xabxm4ak4i034slkfn2gjsp1ra8qu,3yhh42uu5fs9h25zo87tv2j4vee0l7,jhznDFkp,2020-0188,2020-06-04,10:42:33,11:07:55,NA,incomplete,35,number,1,1,right,Blue_Circle_Grid_2.jpg,Purple_Plus_Grid_3.jpg,Green_Triangle_Chess_2.jpg,right,1325.0850000185892,true,low,NA,NA,NA,NA,NA,NA,NA,false
jhznDFkp,3xabxm4ak4i034slkfn2gjsp1ra8qu,3yhh42uu5fs9h25zo87tv2j4vee0l7,jhznDFkp,2020-0188,2020-06-04,10:42:33,11:07:55,NA,incomplete,36,number,1,1,left,Blue_Star_Grid_3.jpg,Red_Circle_Stripes_3.jpg,Green_Plus_Grid_4.jpg,left,932.4349999660626,true,low,NA,NA,NA,NA,NA,NA,NA,false
jhznDFkp,3xabxm4ak4i034slkfn2gjsp1ra8qu,3yhh42uu5fs9h25zo87tv2j4vee0l7,jhznDFkp,2020-0188,2020-06-04,10:42:33,11:07:55,NA,incomplete,37,number,1,0,left,Blue_Star_Dots_1.jpg,Green_Circle_Grid_1.jpg,Purple_Triangle_Dots_3.jpg,left,779.9099999247119,true,low,NA,NA,NA,NA,NA,NA,NA,false
jhznDFkp,3xabxm4ak4i034slkfn2gjsp1ra8qu,3yhh42uu5fs9h25zo87tv2j4vee0l7,jhznDFkp,2020-0188,2020-06-04,10:42:33,11:07:55,NA,incomplete,38,number,1,1,left,Green_Star_Dots_4.jpg,Blue_Plus_Grid_4.jpg,Red_Circle_Dots_1.jpg,left,1266.2100000306964,true,low,NA,NA,NA,NA,NA,NA,NA,false
jhznDFkp,3xabxm4ak4i034slkfn2gjsp1ra8qu,3yhh42uu5fs9h25zo87tv2j4vee0l7,jhznDFkp,2020-0188,2020-06-04,10:42:33,11:07:55,NA,incomplete,39,number,1,1,left,Green_Star_Chess_1.jpg,Purple_Triangle_Dots_1.jpg,Red_Circle_Chess_3.jpg,left,1308.5650000721216,true,low,NA,NA,NA,NA,NA,NA,NA,false
jhznDFkp,3xabxm4ak4i034slkfn2gjsp1ra8qu,3yhh42uu5fs9h25zo87tv2j4vee0l7,jhznDFkp,2020-0188,2020-06-04,10:42:33,11:07:55,NA,incomplete,40,number,1,1,left,Green_Plus_Dots_4.jpg,Purple_Triangle_Grid_4.jpg,Red_Circle_Dots_2.jpg,right,1403.8249999284744,false,low,NA,NA,NA,NA,NA,NA,NA,false
jhznDFkp,3xabxm4ak4i034slkfn2gjsp1ra8qu,3yhh42uu5fs9h25zo87tv2j4vee0l7,jhznDFkp,2020-0188,2020-06-04,10:42:33,11:07:55,NA,incomplete,41,number,1,0,left,Red_Circle_Stripes_4.jpg,Green_Triangle_Chess_4.jpg,Purple_Plus_Stripes_1.jpg,left,620.0050000334159,true,low,NA,NA,NA,NA,NA,NA,NA,false
jhznDFkp,3xabxm4ak4i034slkfn2gjsp1ra8qu,3yhh42uu5fs9h25zo87tv2j4vee0l7,jhznDFkp,2020-0188,2020-06-04,10:42:33,11:07:55,NA,incomplete,42,number,1,1,left,Red_Plus_Chess_2.jpg,Green_Circle_Dots_2.jpg,Purple_Triangle_Chess_1.jpg,left,1191.4200000464916,true,low,NA,NA,NA,NA,NA,NA,NA,false
jhznDFkp,3xabxm4ak4i034slkfn2gjsp1ra8qu,3yhh42uu5fs9h25zo87tv2j4vee0l7,jhznDFkp,2020-0188,2020-06-04,10:42:33,11:07:55,NA,incomplete,43,number,1,1,left,Blue_Triangle_Dots_4.jpg,Purple_Circle_Stripes_4.jpg,Red_Plus_Dots_2.jpg,right,1717.9349999642,false,low,NA,NA,NA,NA,NA,NA,NA,false
jhznDFkp,3xabxm4ak4i034slkfn2gjsp1ra8qu,3yhh42uu5fs9h25zo87tv2j4vee0l7,jhznDFkp,2020-0188,2020-06-04,10:42:33,11:07:55,NA,incomplete,44,number,1,1,right,Green_Star_Dots_2.jpg,Blue_Triangle_Dots_3.jpg,Purple_Plus_Chess_2.jpg,right,764.8749999934807,true,low,NA,NA,NA,NA,NA,NA,NA,false
jhznDFkp,3xabxm4ak4i034slkfn2gjsp1ra8qu,3yhh42uu5fs9h25zo87tv2j4vee0l7,jhznDFkp,2020-0188,2020-06-04,10:42:33,11:07:55,NA,incomplete,45,number,1,1,left,Blue_Star_Grid_3.jpg,Purple_Circle_Stripes_3.jpg,Green_Plus_Grid_2.jpg,left,928.9250000147149,true,low,NA,NA,NA,NA,NA,NA,NA,false
jhznDFkp,3xabxm4ak4i034slkfn2gjsp1ra8qu,3yhh42uu5fs9h25zo87tv2j4vee0l7,jhznDFkp,2020-0188,2020-06-04,10:42:33,11:07:55,NA,incomplete,46,number,1,0,left,Purple_Circle_Dots_1.jpg,Blue_Triangle_Chess_1.jpg,Green_Plus_Dots_3.jpg,left,783.8200000114739,true,low,NA,NA,NA,NA,NA,NA,NA,false
jhznDFkp,3xabxm4ak4i034slkfn2gjsp1ra8qu,3yhh42uu5fs9h25zo87tv2j4vee0l7,jhznDFkp,2020-0188,2020-06-04,10:42:33,11:07:55,NA,incomplete,47,number,1,1,right,Red_Triangle_Dots_1.jpg,Blue_Plus_Dots_3.jpg,Purple_Circle_Grid_1.jpg,right,1274.2249999428168,true,low,NA,NA,NA,NA,NA,NA,NA,false
jhznDFkp,3xabxm4ak4i034slkfn2gjsp1ra8qu,3yhh42uu5fs9h25zo87tv2j4vee0l7,jhznDFkp,2020-0188,2020-06-04,10:42:33,11:07:55,NA,incomplete,48,number,1,1,right,Red_Star_Dots_2.jpg,Blue_Triangle_Dots_4.jpg,Purple_Circle_Grid_2.jpg,right,1147.9400000534952,true,low,NA,NA,NA,NA,NA,NA,NA,false
jhznDFkp,3xabxm4ak4i034slkfn2gjsp1ra8qu,3yhh42uu5fs9h25zo87tv2j4vee0l7,jhznDFkp,2020-0188,2020-06-04,10:42:33,11:07:55,NA,incomplete,49,number,1,1,left,Blue_Star_Chess_3.jpg,Purple_Plus_Dots_3.jpg,Red_Triangle_Chess_2.jpg,left,1093.3950000908226,true,low,NA,NA,NA,NA,NA,NA,NA,false
jhznDFkp,3xabxm4ak4i034slkfn2gjsp1ra8qu,3yhh42uu5fs9h25zo87tv2j4vee0l7,jhznDFkp,2020-0188,2020-06-04,10:42:33,11:07:55,NA,incomplete,50,number,1,1,right,Purple_Star_Dots_3.jpg,Green_Circle_Dots_1.jpg,Red_Triangle_Stripes_3.jpg,right,554.6099999919534,true,low,NA,NA,NA,NA,NA,NA,NA,false
jhznDFkp,3xabxm4ak4i034slkfn2gjsp1ra8qu,3yhh42uu5fs9h25zo87tv2j4vee0l7,jhznDFkp,2020-0188,2020-06-04,10:42:33,11:07:55,NA,incomplete,51,number,1,1,left,Purple_Plus_Grid_4.jpg,Green_Triangle_Dots_4.jpg,Red_Circle_Grid_3.jpg,left,608.4999999729916,true,low,NA,NA,NA,NA,NA,NA,NA,false
jhznDFkp,3xabxm4ak4i034slkfn2gjsp1ra8qu,3yhh42uu5fs9h25zo87tv2j4vee0l7,jhznDFkp,2020-0188,2020-06-04,10:42:33,11:07:55,NA,incomplete,52,number,1,1,right,Purple_Star_Grid_4.jpg,Green_Triangle_Grid_1.jpg,Blue_Circle_Chess_4.jpg,right,506.56999996863306,true,low,NA,NA,NA,NA,NA,NA,NA,false
jhznDFkp,3xabxm4ak4i034slkfn2gjsp1ra8qu,3yhh42uu5fs9h25zo87tv2j4vee0l7,jhznDFkp,2020-0188,2020-06-04,10:42:33,11:07:55,NA,incomplete,53,number,1,1,right,Blue_Star_Grid_3.jpg,Green_Plus_Grid_1.jpg,Purple_Triangle_Chess_3.jpg,right,572.2650000825524,true,low,NA,NA,NA,NA,NA,NA,NA,false
jhznDFkp,3xabxm4ak4i034slkfn2gjsp1ra8qu,3yhh42uu5fs9h25zo87tv2j4vee0l7,jhznDFkp,2020-0188,2020-06-04,10:42:33,11:07:55,NA,incomplete,54,number,1,1,left,Blue_Star_Grid_2.jpg,Red_Circle_Chess_2.jpg,Green_Plus_Grid_1.jpg,left,641.5999999735504,true,low,NA,NA,NA,NA,NA,NA,NA,false
jhznDFkp,3xabxm4ak4i034slkfn2gjsp1ra8qu,3yhh42uu5fs9h25zo87tv2j4vee0l7,jhznDFkp,2020-0188,2020-06-04,10:42:33,11:07:55,NA,incomplete,55,number,1,1,left,Red_Star_Grid_3.jpg,Blue_Circle_Dots_3.jpg,Green_Triangle_Grid_1.jpg,left,564.6399999968708,true,low,NA,NA,NA,NA,NA,NA,NA,false
jhznDFkp,3xabxm4ak4i034slkfn2gjsp1ra8qu,3yhh42uu5fs9h25zo87tv2j4vee0l7,jhznDFkp,2020-0188,2020-06-04,10:42:33,11:07:55,NA,incomplete,56,number,1,1,left,Purple_Circle_Stripes_2.jpg,Green_Star_Grid_2.jpg,Red_Plus_Stripes_4.jpg,left,638.6850000126287,true,low,NA,NA,NA,NA,NA,NA,NA,false
jhznDFkp,3xabxm4ak4i034slkfn2gjsp1ra8qu,3yhh42uu5fs9h25zo87tv2j4vee0l7,jhznDFkp,2020-0188,2020-06-04,10:42:33,11:07:55,NA,incomplete,57,number,1,1,right,Red_Triangle_Chess_4.jpg,Purple_Plus_Chess_2.jpg,Blue_Star_Grid_4.jpg,right,465.4100000625476,true,low,NA,NA,NA,NA,NA,NA,NA,false
jhznDFkp,3xabxm4ak4i034slkfn2gjsp1ra8qu,3yhh42uu5fs9h25zo87tv2j4vee0l7,jhznDFkp,2020-0188,2020-06-04,10:42:33,11:07:55,NA,incomplete,58,number,1,1,right,Green_Triangle_Stripes_3.jpg,Red_Star_Stripes_1.jpg,Purple_Circle_Chess_3.jpg,right,486.7099999682978,true,low,NA,NA,NA,NA,NA,NA,NA,false
jhznDFkp,3xabxm4ak4i034slkfn2gjsp1ra8qu,3yhh42uu5fs9h25zo87tv2j4vee0l7,jhznDFkp,2020-0188,2020-06-04,10:42:33,11:07:55,NA,incomplete,59,number,1,1,left,Red_Circle_Chess_1.jpg,Blue_Triangle_Stripes_1.jpg,Green_Plus_Chess_4.jpg,left,529.17500003241,true,low,NA,NA,NA,NA,NA,NA,NA,false
jhznDFkp,3xabxm4ak4i034slkfn2gjsp1ra8qu,3yhh42uu5fs9h25zo87tv2j4vee0l7,jhznDFkp,2020-0188,2020-06-04,10:42:33,11:07:55,NA,incomplete,60,filling,0,1,right,Red_Plus_Chess_3.jpg,Purple_Star_Grid_3.jpg,Blue_Triangle_Chess_4.jpg,left,468.6050000600517,false,low,NA,NA,NA,NA,NA,NA,NA,false
jhznDFkp,3xabxm4ak4i034slkfn2gjsp1ra8qu,3yhh42uu5fs9h25zo87tv2j4vee0l7,jhznDFkp,2020-0188,2020-06-04,10:42:33,11:07:55,NA,incomplete,61,filling,0,0,left,Green_Plus_Chess_4.jpg,Red_Triangle_Chess_1.jpg,Purple_Star_Stripes_4.jpg,right,462.8550000488758,false,low,NA,NA,NA,NA,NA,NA,NA,false
jhznDFkp,3xabxm4ak4i034slkfn2gjsp1ra8qu,3yhh42uu5fs9h25zo87tv2j4vee0l7,jhznDFkp,2020-0188,2020-06-04,10:42:33,11:07:55,NA,incomplete,62,filling,0,0,left,Purple_Triangle_Chess_1.jpg,Green_Star_Chess_3.jpg,Blue_Plus_Stripes_1.jpg,right,493.0150000145659,false,low,NA,NA,NA,NA,NA,NA,NA,false
jhznDFkp,3xabxm4ak4i034slkfn2gjsp1ra8qu,3yhh42uu5fs9h25zo87tv2j4vee0l7,jhznDFkp,2020-0188,2020-06-04,10:42:33,11:07:55,NA,incomplete,63,filling,0,1,right,Blue_Plus_Grid_1.jpg,Red_Triangle_Stripes_1.jpg,Green_Star_Grid_3.jpg,left,370.49000000115484,false,low,NA,NA,NA,NA,NA,NA,NA,false
jhznDFkp,3xabxm4ak4i034slkfn2gjsp1ra8qu,3yhh42uu5fs9h25zo87tv2j4vee0l7,jhznDFkp,2020-0188,2020-06-04,10:42:33,11:07:55,NA,incomplete,64,filling,0,1,right,Blue_Plus_Chess_2.jpg,Purple_Star_Stripes_2.jpg,Green_Circle_Chess_4.jpg,right,964.2799999564886,true,low,NA,NA,NA,NA,NA,NA,NA,false
jhznDFkp,3xabxm4ak4i034slkfn2gjsp1ra8qu,3yhh42uu5fs9h25zo87tv2j4vee0l7,jhznDFkp,2020-0188,2020-06-04,10:42:33,11:07:55,NA,incomplete,65,filling,0,1,right,Purple_Triangle_Grid_1.jpg,Blue_Star_Chess_1.jpg,Red_Circle_Grid_2.jpg,right,610.2899999823421,true,low,NA,NA,NA,NA,NA,NA,NA,false
jhznDFkp,3xabxm4ak4i034slkfn2gjsp1ra8qu,3yhh42uu5fs9h25zo87tv2j4vee0l7,jhznDFkp,2020-0188,2020-06-04,10:42:33,11:07:55,NA,incomplete,66,filling,0,1,left,Purple_Triangle_Stripes_1.jpg,Blue_Circle_Stripes_3.jpg,Green_Plus_Grid_1.jpg,left,910.1500000106171,true,low,NA,NA,NA,NA,NA,NA,NA,false
jhznDFkp,3xabxm4ak4i034slkfn2gjsp1ra8qu,3yhh42uu5fs9h25zo87tv2j4vee0l7,jhznDFkp,2020-0188,2020-06-04,10:42:33,11:07:55,NA,incomplete,67,filling,0,1,left,Purple_Plus_Grid_3.jpg,Green_Star_Grid_4.jpg,Blue_Circle_Chess_3.jpg,left,835.6799999019131,true,low,NA,NA,NA,NA,NA,NA,NA,false
jhznDFkp,3xabxm4ak4i034slkfn2gjsp1ra8qu,3yhh42uu5fs9h25zo87tv2j4vee0l7,jhznDFkp,2020-0188,2020-06-04,10:42:33,11:07:55,NA,incomplete,68,filling,0,1,left,Green_Triangle_Dots_4.jpg,Blue_Circle_Dots_3.jpg,Purple_Plus_Grid_4.jpg,left,743.6900000320747,true,low,NA,NA,NA,NA,NA,NA,NA,false
jhznDFkp,3xabxm4ak4i034slkfn2gjsp1ra8qu,3yhh42uu5fs9h25zo87tv2j4vee0l7,jhznDFkp,2020-0188,2020-06-04,10:42:33,11:07:55,NA,incomplete,69,filling,0,1,right,Red_Triangle_Stripes_3.jpg,Green_Circle_Grid_3.jpg,Purple_Plus_Stripes_2.jpg,right,852.625000057742,true,low,NA,NA,NA,NA,NA,NA,NA,false
jhznDFkp,3xabxm4ak4i034slkfn2gjsp1ra8qu,3yhh42uu5fs9h25zo87tv2j4vee0l7,jhznDFkp,2020-0188,2020-06-04,10:42:33,11:07:55,NA,incomplete,70,filling,0,1,right,Blue_Triangle_Stripes_1.jpg,Green_Plus_Dots_1.jpg,Red_Circle_Stripes_2.jpg,right,742.3549999948591,true,low,NA,NA,NA,NA,NA,NA,NA,false
jhznDFkp,3xabxm4ak4i034slkfn2gjsp1ra8qu,3yhh42uu5fs9h25zo87tv2j4vee0l7,jhznDFkp,2020-0188,2020-06-04,10:42:33,11:07:55,NA,incomplete,71,filling,0,0,right,Green_Triangle_Chess_1.jpg,Blue_Plus_Dots_1.jpg,Red_Star_Chess_3.jpg,right,1048.0550000211224,true,low,NA,NA,NA,NA,NA,NA,NA,false
jhznDFkp,3xabxm4ak4i034slkfn2gjsp1ra8qu,3yhh42uu5fs9h25zo87tv2j4vee0l7,jhznDFkp,2020-0188,2020-06-04,10:42:33,11:07:55,NA,incomplete,72,filling,0,1,right,Blue_Circle_Dots_2.jpg,Green_Triangle_Stripes_2.jpg,Purple_Plus_Dots_4.jpg,left,727.3149999091402,false,low,NA,NA,NA,NA,NA,NA,NA,false
jhznDFkp,3xabxm4ak4i034slkfn2gjsp1ra8qu,3yhh42uu5fs9h25zo87tv2j4vee0l7,jhznDFkp,2020-0188,2020-06-04,10:42:33,11:07:55,NA,incomplete,73,filling,0,1,left,Purple_Triangle_Chess_1.jpg,Blue_Circle_Chess_3.jpg,Green_Star_Stripes_1.jpg,left,828.4949999069795,true,low,NA,NA,NA,NA,NA,NA,NA,false
jhznDFkp,3xabxm4ak4i034slkfn2gjsp1ra8qu,3yhh42uu5fs9h25zo87tv2j4vee0l7,jhznDFkp,2020-0188,2020-06-04,10:42:33,11:07:55,NA,incomplete,74,filling,0,1,left,Purple_Triangle_Chess_4.jpg,Red_Plus_Chess_1.jpg,Blue_Star_Dots_4.jpg,right,1364.2450000625104,false,low,NA,NA,NA,NA,NA,NA,NA,false
jhznDFkp,3xabxm4ak4i034slkfn2gjsp1ra8qu,3yhh42uu5fs9h25zo87tv2j4vee0l7,jhznDFkp,2020-0188,2020-06-04,10:42:33,11:07:55,NA,incomplete,75,filling,0,0,left,Green_Triangle_Grid_2.jpg,Blue_Plus_Grid_4.jpg,Purple_Star_Chess_2.jpg,left,928.4800000023097,true,low,NA,NA,NA,NA,NA,NA,NA,false
jhznDFkp,3xabxm4ak4i034slkfn2gjsp1ra8qu,3yhh42uu5fs9h25zo87tv2j4vee0l7,jhznDFkp,2020-0188,2020-06-04,10:42:33,11:07:55,NA,incomplete,76,filling,0,1,left,Blue_Triangle_Dots_1.jpg,Red_Circle_Dots_4.jpg,Purple_Plus_Stripes_1.jpg,right,605.2449999842793,false,low,NA,NA,NA,NA,NA,NA,NA,false
jhznDFkp,3xabxm4ak4i034slkfn2gjsp1ra8qu,3yhh42uu5fs9h25zo87tv2j4vee0l7,jhznDFkp,2020-0188,2020-06-04,10:42:33,11:07:55,NA,incomplete,77,filling,0,1,left,Green_Circle_Stripes_2.jpg,Purple_Plus_Stripes_4.jpg,Blue_Triangle_Chess_2.jpg,left,1928.01499995403,true,low,NA,NA,NA,NA,NA,NA,NA,false
jhznDFkp,3xabxm4ak4i034slkfn2gjsp1ra8qu,3yhh42uu5fs9h25zo87tv2j4vee0l7,jhznDFkp,2020-0188,2020-06-04,10:42:33,11:07:55,NA,incomplete,78,filling,0,0,right,Blue_Triangle_Dots_3.jpg,Green_Circle_Grid_3.jpg,Purple_Star_Dots_4.jpg,right,1270.0750000076368,true,low,NA,NA,NA,NA,NA,NA,NA,false
jhznDFkp,3xabxm4ak4i034slkfn2gjsp1ra8qu,3yhh42uu5fs9h25zo87tv2j4vee0l7,jhznDFkp,2020-0188,2020-06-04,10:42:33,11:07:55,NA,incomplete,79,filling,0,0,left,Green_Star_Dots_2.jpg,Red_Triangle_Dots_1.jpg,Blue_Circle_Chess_2.jpg,right,1676.3300000457093,false,low,NA,NA,NA,NA,NA,NA,NA,false
jhznDFkp,3xabxm4ak4i034slkfn2gjsp1ra8qu,3yhh42uu5fs9h25zo87tv2j4vee0l7,jhznDFkp,2020-0188,2020-06-04,10:42:33,11:07:55,NA,incomplete,80,filling,0,1,left,Blue_Triangle_Dots_3.jpg,Purple_Star_Dots_4.jpg,Green_Circle_Stripes_3.jpg,left,1434.309999924153,true,low,NA,NA,NA,NA,NA,NA,NA,false
jhznDFkp,3xabxm4ak4i034slkfn2gjsp1ra8qu,3yhh42uu5fs9h25zo87tv2j4vee0l7,jhznDFkp,2020-0188,2020-06-04,10:42:33,11:07:55,NA,incomplete,81,filling,0,1,right,Red_Triangle_Grid_4.jpg,Purple_Plus_Dots_4.jpg,Blue_Star_Grid_1.jpg,right,1060.3950000368059,true,low,NA,NA,NA,NA,NA,NA,NA,false
jhznDFkp,3xabxm4ak4i034slkfn2gjsp1ra8qu,3yhh42uu5fs9h25zo87tv2j4vee0l7,jhznDFkp,2020-0188,2020-06-04,10:42:33,11:07:55,NA,incomplete,82,filling,0,1,right,Purple_Plus_Chess_2.jpg,Blue_Triangle_Stripes_2.jpg,Red_Circle_Chess_1.jpg,left,991.355000063777,false,low,NA,NA,NA,NA,NA,NA,NA,false
jhznDFkp,3xabxm4ak4i034slkfn2gjsp1ra8qu,3yhh42uu5fs9h25zo87tv2j4vee0l7,jhznDFkp,2020-0188,2020-06-04,10:42:33,11:07:55,NA,incomplete,83,filling,0,1,left,Green_Triangle_Dots_3.jpg,Purple_Star_Dots_2.jpg,Blue_Plus_Grid_3.jpg,right,1752.449999912642,false,low,NA,NA,NA,NA,NA,NA,NA,false
jhznDFkp,3xabxm4ak4i034slkfn2gjsp1ra8qu,3yhh42uu5fs9h25zo87tv2j4vee0l7,jhznDFkp,2020-0188,2020-06-04,10:42:33,11:07:55,NA,incomplete,84,filling,0,1,left,Green_Circle_Stripes_4.jpg,Red_Star_Stripes_1.jpg,Purple_Triangle_Grid_4.jpg,left,905.1800000015646,true,low,NA,NA,NA,NA,NA,NA,NA,false
jhznDFkp,3xabxm4ak4i034slkfn2gjsp1ra8qu,3yhh42uu5fs9h25zo87tv2j4vee0l7,jhznDFkp,2020-0188,2020-06-04,10:42:33,11:07:55,NA,incomplete,85,filling,0,1,right,Red_Plus_Chess_4.jpg,Green_Circle_Dots_4.jpg,Blue_Triangle_Chess_2.jpg,right,1533.1899999873713,true,low,NA,NA,NA,NA,NA,NA,NA,false
jhznDFkp,3xabxm4ak4i034slkfn2gjsp1ra8qu,3yhh42uu5fs9h25zo87tv2j4vee0l7,jhznDFkp,2020-0188,2020-06-04,10:42:33,11:07:55,NA,incomplete,86,filling,0,0,left,Purple_Plus_Grid_2.jpg,Green_Star_Grid_1.jpg,Blue_Circle_Dots_2.jpg,right,1909.275000100024,false,low,NA,NA,NA,NA,NA,NA,NA,false
jhznDFkp,3xabxm4ak4i034slkfn2gjsp1ra8qu,3yhh42uu5fs9h25zo87tv2j4vee0l7,jhznDFkp,2020-0188,2020-06-04,10:42:33,11:07:55,NA,incomplete,87,filling,0,1,right,Blue_Circle_Dots_4.jpg,Green_Triangle_Stripes_4.jpg,Purple_Star_Dots_1.jpg,right,1911.8399999570101,true,low,NA,NA,NA,NA,NA,NA,NA,false
jhznDFkp,3xabxm4ak4i034slkfn2gjsp1ra8qu,3yhh42uu5fs9h25zo87tv2j4vee0l7,jhznDFkp,2020-0188,2020-06-04,10:42:33,11:07:55,NA,incomplete,88,filling,0,1,right,Green_Triangle_Chess_3.jpg,Blue_Star_Stripes_3.jpg,Red_Plus_Chess_2.jpg,left,1210.774999926798,false,low,NA,NA,NA,NA,NA,NA,NA,false
jhznDFkp,3xabxm4ak4i034slkfn2gjsp1ra8qu,3yhh42uu5fs9h25zo87tv2j4vee0l7,jhznDFkp,2020-0188,2020-06-04,10:42:33,11:07:55,NA,incomplete,89,filling,0,1,left,Blue_Triangle_Stripes_1.jpg,Purple_Plus_Stripes_3.jpg,Red_Circle_Grid_1.jpg,left,969.7100000921637,true,low,NA,NA,NA,NA,NA,NA,NA,false
jhznDFkp,3xabxm4ak4i034slkfn2gjsp1ra8qu,3yhh42uu5fs9h25zo87tv2j4vee0l7,jhznDFkp,2020-0188,2020-06-04,10:42:33,11:07:55,NA,incomplete,90,number,1,1,left,Green_Star_Stripes_1.jpg,Blue_Triangle_Chess_1.jpg,Purple_Plus_Stripes_3.jpg,right,1439.9650000268593,false,low,NA,NA,NA,NA,NA,NA,NA,false
jhznDFkp,3xabxm4ak4i034slkfn2gjsp1ra8qu,3yhh42uu5fs9h25zo87tv2j4vee0l7,jhznDFkp,2020-0188,2020-06-04,10:42:33,11:07:55,NA,incomplete,91,number,1,1,left,Blue_Triangle_Dots_2.jpg,Green_Star_Chess_2.jpg,Purple_Circle_Dots_1.jpg,left,916.410000063479,true,low,NA,NA,NA,NA,NA,NA,NA,false
jhznDFkp,3xabxm4ak4i034slkfn2gjsp1ra8qu,3yhh42uu5fs9h25zo87tv2j4vee0l7,jhznDFkp,2020-0188,2020-06-04,10:42:33,11:07:55,NA,incomplete,92,number,1,1,right,Blue_Triangle_Stripes_1.jpg,Red_Plus_Stripes_4.jpg,Green_Circle_Chess_1.jpg,right,1243.2449999032542,true,low,NA,NA,NA,NA,NA,NA,NA,false
jhznDFkp,3xabxm4ak4i034slkfn2gjsp1ra8qu,3yhh42uu5fs9h25zo87tv2j4vee0l7,jhznDFkp,2020-0188,2020-06-04,10:42:33,11:07:55,NA,incomplete,93,number,1,1,right,Blue_Circle_Dots_3.jpg,Green_Triangle_Dots_2.jpg,Purple_Plus_Stripes_3.jpg,right,937.1149999788031,true,low,NA,NA,NA,NA,NA,NA,NA,false
jhznDFkp,3xabxm4ak4i034slkfn2gjsp1ra8qu,3yhh42uu5fs9h25zo87tv2j4vee0l7,jhznDFkp,2020-0188,2020-06-04,10:42:33,11:07:55,NA,incomplete,94,number,1,1,right,Red_Plus_Dots_4.jpg,Blue_Circle_Dots_1.jpg,Green_Star_Chess_4.jpg,right,724.8250000411645,true,low,NA,NA,NA,NA,NA,NA,NA,false
jhznDFkp,3xabxm4ak4i034slkfn2gjsp1ra8qu,3yhh42uu5fs9h25zo87tv2j4vee0l7,jhznDFkp,2020-0188,2020-06-04,10:42:33,11:07:55,NA,incomplete,95,number,1,1,right,Purple_Star_Grid_2.jpg,Red_Circle_Grid_1.jpg,Green_Plus_Chess_2.jpg,left,1365.265000029467,false,low,NA,NA,NA,NA,NA,NA,NA,false
jhznDFkp,3xabxm4ak4i034slkfn2gjsp1ra8qu,3yhh42uu5fs9h25zo87tv2j4vee0l7,jhznDFkp,2020-0188,2020-06-04,10:42:33,11:07:55,NA,incomplete,96,number,1,1,right,Green_Circle_Dots_3.jpg,Purple_Star_Dots_4.jpg,Red_Plus_Chess_3.jpg,left,1251.6050001140684,false,low,NA,NA,NA,NA,NA,NA,NA,false
jhznDFkp,3xabxm4ak4i034slkfn2gjsp1ra8qu,3yhh42uu5fs9h25zo87tv2j4vee0l7,jhznDFkp,2020-0188,2020-06-04,10:42:33,11:07:55,NA,incomplete,97,number,1,1,left,Blue_Star_Chess_4.jpg,Red_Triangle_Stripes_4.jpg,Green_Plus_Chess_3.jpg,left,917.7050000289455,true,low,NA,NA,NA,NA,NA,NA,NA,false
jhznDFkp,3xabxm4ak4i034slkfn2gjsp1ra8qu,3yhh42uu5fs9h25zo87tv2j4vee0l7,jhznDFkp,2020-0188,2020-06-04,10:42:33,11:07:55,NA,incomplete,98,number,1,0,left,Red_Circle_Stripes_2.jpg,Green_Plus_Chess_2.jpg,Blue_Star_Stripes_4.jpg,left,947.6100000320002,true,low,NA,NA,NA,NA,NA,NA,NA,false
jhznDFkp,3xabxm4ak4i034slkfn2gjsp1ra8qu,3yhh42uu5fs9h25zo87tv2j4vee0l7,jhznDFkp,2020-0188,2020-06-04,10:42:33,11:07:55,NA,incomplete,99,number,1,1,left,Green_Star_Chess_1.jpg,Purple_Plus_Dots_1.jpg,Blue_Triangle_Chess_3.jpg,right,1493.2649999391288,false,low,NA,NA,NA,NA,NA,NA,NA,false
jhznDFkp,3xabxm4ak4i034slkfn2gjsp1ra8qu,3yhh42uu5fs9h25zo87tv2j4vee0l7,jhznDFkp,2020-0188,2020-06-04,10:42:33,11:07:55,NA,incomplete,100,number,1,1,left,Green_Star_Dots_4.jpg,Blue_Plus_Chess_4.jpg,Red_Circle_Dots_1.jpg,left,554.1599999414757,true,low,NA,NA,NA,NA,NA,NA,NA,false
jhznDFkp,3xabxm4ak4i034slkfn2gjsp1ra8qu,3yhh42uu5fs9h25zo87tv2j4vee0l7,jhznDFkp,2020-0188,2020-06-04,10:42:33,11:07:55,NA,incomplete,101,number,1,1,left,Red_Circle_Stripes_4.jpg,Blue_Triangle_Chess_4.jpg,Green_Star_Stripes_1.jpg,right,878.095000050962,false,low,NA,NA,NA,NA,NA,NA,NA,false
jhznDFkp,3xabxm4ak4i034slkfn2gjsp1ra8qu,3yhh42uu5fs9h25zo87tv2j4vee0l7,jhznDFkp,2020-0188,2020-06-04,10:42:33,11:07:55,NA,incomplete,102,number,1,0,right,Green_Triangle_Dots_4.jpg,Red_Circle_Dots_2.jpg,Blue_Star_Stripes_4.jpg,right,1496.7550000874326,true,low,NA,NA,NA,NA,NA,NA,NA,false
jhznDFkp,3xabxm4ak4i034slkfn2gjsp1ra8qu,3yhh42uu5fs9h25zo87tv2j4vee0l7,jhznDFkp,2020-0188,2020-06-04,10:42:33,11:07:55,NA,incomplete,103,number,1,1,left,Blue_Triangle_Dots_4.jpg,Green_Circle_Chess_4.jpg,Red_Star_Dots_1.jpg,left,1134.3249999918044,true,low,NA,NA,NA,NA,NA,NA,NA,false
jhznDFkp,3xabxm4ak4i034slkfn2gjsp1ra8qu,3yhh42uu5fs9h25zo87tv2j4vee0l7,jhznDFkp,2020-0188,2020-06-04,10:42:33,11:07:55,NA,incomplete,104,number,1,1,right,Red_Plus_Stripes_3.jpg,Green_Star_Stripes_1.jpg,Blue_Triangle_Chess_3.jpg,left,1827.4399999063462,false,low,NA,NA,NA,NA,NA,NA,NA,false
jhznDFkp,3xabxm4ak4i034slkfn2gjsp1ra8qu,3yhh42uu5fs9h25zo87tv2j4vee0l7,jhznDFkp,2020-0188,2020-06-04,10:42:33,11:07:55,NA,incomplete,105,number,1,1,left,Green_Triangle_Stripes_1.jpg,Blue_Plus_Chess_1.jpg,Red_Circle_Stripes_2.jpg,left,974.8649999964982,true,low,NA,NA,NA,NA,NA,NA,NA,false
jhznDFkp,3xabxm4ak4i034slkfn2gjsp1ra8qu,3yhh42uu5fs9h25zo87tv2j4vee0l7,jhznDFkp,2020-0188,2020-06-04,10:42:33,11:07:55,NA,incomplete,106,number,1,1,left,Purple_Star_Stripes_2.jpg,Green_Circle_Dots_2.jpg,Red_Triangle_Stripes_1.jpg,right,868.6199999647215,false,low,NA,NA,NA,NA,NA,NA,NA,false
jhznDFkp,3xabxm4ak4i034slkfn2gjsp1ra8qu,3yhh42uu5fs9h25zo87tv2j4vee0l7,jhznDFkp,2020-0188,2020-06-04,10:42:33,11:07:55,NA,incomplete,107,number,1,0,right,Green_Triangle_Grid_3.jpg,Purple_Plus_Grid_4.jpg,Red_Circle_Chess_3.jpg,left,1295.3350000316277,false,low,NA,NA,NA,NA,NA,NA,NA,false
jhznDFkp,3xabxm4ak4i034slkfn2gjsp1ra8qu,3yhh42uu5fs9h25zo87tv2j4vee0l7,jhznDFkp,2020-0188,2020-06-04,10:42:33,11:07:55,NA,incomplete,108,number,1,1,left,Red_Circle_Dots_3.jpg,Blue_Star_Grid_3.jpg,Green_Triangle_Dots_2.jpg,right,708.7349999928847,false,low,NA,NA,NA,NA,NA,NA,NA,false
jhznDFkp,3xabxm4ak4i034slkfn2gjsp1ra8qu,3yhh42uu5fs9h25zo87tv2j4vee0l7,jhznDFkp,2020-0188,2020-06-04,10:42:33,11:07:55,NA,incomplete,109,number,1,1,left,Green_Triangle_Chess_1.jpg,Red_Plus_Dots_1.jpg,Purple_Star_Chess_4.jpg,left,687.6349999802187,true,low,NA,NA,NA,NA,NA,NA,NA,false
jhznDFkp,3xabxm4ak4i034slkfn2gjsp1ra8qu,3yhh42uu5fs9h25zo87tv2j4vee0l7,jhznDFkp,2020-0188,2020-06-04,10:42:33,11:07:55,NA,incomplete,110,number,1,1,left,Purple_Triangle_Grid_3.jpg,Red_Plus_Stripes_3.jpg,Blue_Circle_Grid_4.jpg,left,570.7300000358373,true,low,NA,NA,NA,NA,NA,NA,NA,false
jhznDFkp,3xabxm4ak4i034slkfn2gjsp1ra8qu,3yhh42uu5fs9h25zo87tv2j4vee0l7,jhznDFkp,2020-0188,2020-06-04,10:42:33,11:07:55,NA,incomplete,111,number,1,1,right,Blue_Star_Chess_4.jpg,Green_Circle_Chess_2.jpg,Purple_Plus_Grid_4.jpg,left,1059.7650000127032,false,low,NA,NA,NA,NA,NA,NA,NA,false
jhznDFkp,3xabxm4ak4i034slkfn2gjsp1ra8qu,3yhh42uu5fs9h25zo87tv2j4vee0l7,jhznDFkp,2020-0188,2020-06-04,10:42:33,11:07:55,NA,incomplete,112,number,1,1,left,Purple_Star_Stripes_4.jpg,Red_Plus_Chess_4.jpg,Blue_Triangle_Stripes_3.jpg,right,868.6650000745431,false,low,NA,NA,NA,NA,NA,NA,NA,false
jhznDFkp,3xabxm4ak4i034slkfn2gjsp1ra8qu,3yhh42uu5fs9h25zo87tv2j4vee0l7,jhznDFkp,2020-0188,2020-06-04,10:42:33,11:07:55,NA,incomplete,113,number,1,1,left,Red_Triangle_Stripes_1.jpg,Blue_Star_Dots_1.jpg,Purple_Circle_Stripes_4.jpg,right,743.7699999427423,false,low,NA,NA,NA,NA,NA,NA,NA,false
jhznDFkp,3xabxm4ak4i034slkfn2gjsp1ra8qu,3yhh42uu5fs9h25zo87tv2j4vee0l7,jhznDFkp,2020-0188,2020-06-04,10:42:33,11:07:55,NA,incomplete,114,number,1,1,right,Purple_Plus_Dots_4.jpg,Blue_Triangle_Dots_2.jpg,Green_Circle_Chess_4.jpg,left,934.7900000866503,false,low,NA,NA,NA,NA,NA,NA,NA,false
jhznDFkp,3xabxm4ak4i034slkfn2gjsp1ra8qu,3yhh42uu5fs9h25zo87tv2j4vee0l7,jhznDFkp,2020-0188,2020-06-04,10:42:33,11:07:55,NA,incomplete,115,number,1,1,right,Purple_Circle_Chess_2.jpg,Green_Plus_Chess_1.jpg,Blue_Star_Stripes_2.jpg,left,725.5850000074133,false,low,NA,NA,NA,NA,NA,NA,NA,false
jhznDFkp,3xabxm4ak4i034slkfn2gjsp1ra8qu,3yhh42uu5fs9h25zo87tv2j4vee0l7,jhznDFkp,2020-0188,2020-06-04,10:42:33,11:07:55,NA,incomplete,116,number,1,1,right,Green_Circle_Dots_1.jpg,Purple_Triangle_Dots_2.jpg,Red_Plus_Grid_1.jpg,left,830.2799999946728,false,low,NA,NA,NA,NA,NA,NA,NA,false
jhznDFkp,3xabxm4ak4i034slkfn2gjsp1ra8qu,3yhh42uu5fs9h25zo87tv2j4vee0l7,jhznDFkp,2020-0188,2020-06-04,10:42:33,11:07:55,NA,incomplete,117,number,1,1,left,Blue_Star_Grid_1.jpg,Red_Circle_Dots_1.jpg,Purple_Triangle_Grid_4.jpg,left,803.7599999224767,true,low,NA,NA,NA,NA,NA,NA,NA,false
jhznDFkp,3xabxm4ak4i034slkfn2gjsp1ra8qu,3yhh42uu5fs9h25zo87tv2j4vee0l7,jhznDFkp,2020-0188,2020-06-04,10:42:33,11:07:55,NA,incomplete,118,number,1,1,left,Green_Star_Chess_4.jpg,Purple_Circle_Dots_4.jpg,Blue_Triangle_Chess_1.jpg,left,1578.0050000175834,true,low,NA,NA,NA,NA,NA,NA,NA,false
jhznDFkp,3xabxm4ak4i034slkfn2gjsp1ra8qu,3yhh42uu5fs9h25zo87tv2j4vee0l7,jhznDFkp,2020-0188,2020-06-04,10:42:33,11:07:55,NA,incomplete,119,number,1,1,left,Green_Plus_Grid_3.jpg,Red_Star_Chess_3.jpg,Purple_Triangle_Grid_1.jpg,left,1779.0149999782443,true,low,NA,NA,NA,NA,NA,NA,NA,false
jhznDFkp,3xabxm4ak4i034slkfn2gjsp1ra8qu,3yhh42uu5fs9h25zo87tv2j4vee0l7,jhznDFkp,2020-0188,2020-06-04,10:42:33,11:07:55,NA,incomplete,120,race,2,1,left,C_M_04.jpg,C_F_13.jpg,A_M_07.jpg,NA,NA,NA,low,NA,NA,NA,NA,NA,NA,NA,false
jhznDFkp,3xabxm4ak4i034slkfn2gjsp1ra8qu,3yhh42uu5fs9h25zo87tv2j4vee0l7,jhznDFkp,2020-0188,2020-06-04,10:42:33,11:07:55,NA,incomplete,121,race,2,1,right,C_F_02.jpg,A_F_13.jpg,C_M_16.jpg,none,0,false,low,NA,NA,NA,NA,NA,NA,NA,false
jhznDFkp,3xabxm4ak4i034slkfn2gjsp1ra8qu,3yhh42uu5fs9h25zo87tv2j4vee0l7,jhznDFkp,2020-0188,2020-06-04,10:42:33,11:07:55,NA,incomplete,122,race,2,0,left,A_F_11.jpg,A_M_08.jpg,C_F_10.jpg,right,737.9250000230968,false,low,NA,NA,NA,NA,NA,NA,NA,false
jhznDFkp,3xabxm4ak4i034slkfn2gjsp1ra8qu,3yhh42uu5fs9h25zo87tv2j4vee0l7,jhznDFkp,2020-0188,2020-06-04,10:42:33,11:07:55,NA,incomplete,123,race,2,1,right,A_F_10.jpg,C_F_12.jpg,A_M_15.jpg,right,978.5850000334904,true,low,NA,NA,NA,NA,NA,NA,NA,false
jhznDFkp,3xabxm4ak4i034slkfn2gjsp1ra8qu,3yhh42uu5fs9h25zo87tv2j4vee0l7,jhznDFkp,2020-0188,2020-06-04,10:42:33,11:07:55,NA,incomplete,124,race,2,0,right,C_M_13.jpg,A_M_01.jpg,C_F_09.jpg,left,1024.489999981597,false,low,NA,NA,NA,NA,NA,NA,NA,false
jhznDFkp,3xabxm4ak4i034slkfn2gjsp1ra8qu,3yhh42uu5fs9h25zo87tv2j4vee0l7,jhznDFkp,2020-0188,2020-06-04,10:42:33,11:07:55,NA,incomplete,125,race,2,1,right,C_M_06.jpg,A_M_09.jpg,C_F_10.jpg,right,957.325000083074,true,low,NA,NA,NA,NA,NA,NA,NA,false
jhznDFkp,3xabxm4ak4i034slkfn2gjsp1ra8qu,3yhh42uu5fs9h25zo87tv2j4vee0l7,jhznDFkp,2020-0188,2020-06-04,10:42:33,11:07:55,NA,incomplete,126,race,2,0,left,A_F_12.jpg,A_M_02.jpg,C_F_13.jpg,right,886.1899999901652,false,low,NA,NA,NA,NA,NA,NA,NA,false
jhznDFkp,3xabxm4ak4i034slkfn2gjsp1ra8qu,3yhh42uu5fs9h25zo87tv2j4vee0l7,jhznDFkp,2020-0188,2020-06-04,10:42:33,11:07:55,NA,incomplete,127,race,2,1,left,A_F_07.jpg,A_M_08.jpg,C_F_15.jpg,left,820.4200000036508,true,low,NA,NA,NA,NA,NA,NA,NA,false
jhznDFkp,3xabxm4ak4i034slkfn2gjsp1ra8qu,3yhh42uu5fs9h25zo87tv2j4vee0l7,jhznDFkp,2020-0188,2020-06-04,10:42:33,11:07:55,NA,incomplete,128,race,2,0,left,C_M_12.jpg,C_F_10.jpg,A_M_16.jpg,right,792.9749999893829,false,low,NA,NA,NA,NA,NA,NA,NA,false
jhznDFkp,3xabxm4ak4i034slkfn2gjsp1ra8qu,3yhh42uu5fs9h25zo87tv2j4vee0l7,jhznDFkp,2020-0188,2020-06-04,10:42:33,11:07:55,NA,incomplete,129,race,2,1,right,C_M_13.jpg,A_M_12.jpg,C_F_03.jpg,right,801.4699999475852,true,low,NA,NA,NA,NA,NA,NA,NA,false
jhznDFkp,3xabxm4ak4i034slkfn2gjsp1ra8qu,3yhh42uu5fs9h25zo87tv2j4vee0l7,jhznDFkp,2020-0188,2020-06-04,10:42:33,11:07:55,NA,incomplete,130,race,2,1,right,C_M_12.jpg,A_M_15.jpg,C_F_07.jpg,left,715.7850000075996,false,low,NA,NA,NA,NA,NA,NA,NA,false
jhznDFkp,3xabxm4ak4i034slkfn2gjsp1ra8qu,3yhh42uu5fs9h25zo87tv2j4vee0l7,jhznDFkp,2020-0188,2020-06-04,10:42:33,11:07:55,NA,incomplete,131,race,2,1,left,A_F_10.jpg,A_M_06.jpg,C_F_15.jpg,left,738.9299999922514,true,low,NA,NA,NA,NA,NA,NA,NA,false
jhznDFkp,3xabxm4ak4i034slkfn2gjsp1ra8qu,3yhh42uu5fs9h25zo87tv2j4vee0l7,jhznDFkp,2020-0188,2020-06-04,10:42:33,11:07:55,NA,incomplete,132,race,2,1,right,A_F_06.jpg,C_F_04.jpg,A_M_09.jpg,right,928.8949999026954,true,low,NA,NA,NA,NA,NA,NA,NA,false
jhznDFkp,3xabxm4ak4i034slkfn2gjsp1ra8qu,3yhh42uu5fs9h25zo87tv2j4vee0l7,jhznDFkp,2020-0188,2020-06-04,10:42:33,11:07:55,NA,incomplete,133,race,2,1,right,A_F_13.jpg,C_F_14.jpg,A_M_04.jpg,left,741.6949999751523,false,low,NA,NA,NA,NA,NA,NA,NA,false
jhznDFkp,3xabxm4ak4i034slkfn2gjsp1ra8qu,3yhh42uu5fs9h25zo87tv2j4vee0l7,jhznDFkp,2020-0188,2020-06-04,10:42:33,11:07:55,NA,incomplete,134,race,2,1,right,A_F_04.jpg,C_F_01.jpg,A_M_11.jpg,left,1504.480000003241,false,low,NA,NA,NA,NA,NA,NA,NA,false
jhznDFkp,3xabxm4ak4i034slkfn2gjsp1ra8qu,3yhh42uu5fs9h25zo87tv2j4vee0l7,jhznDFkp,2020-0188,2020-06-04,10:42:33,11:07:55,NA,incomplete,135,race,2,0,left,C_F_11.jpg,C_M_03.jpg,A_F_15.jpg,left,869.3949999287724,true,low,NA,NA,NA,NA,NA,NA,NA,false
jhznDFkp,3xabxm4ak4i034slkfn2gjsp1ra8qu,3yhh42uu5fs9h25zo87tv2j4vee0l7,jhznDFkp,2020-0188,2020-06-04,10:42:33,11:07:55,NA,incomplete,136,race,2,1,right,A_M_04.jpg,C_M_01.jpg,A_F_05.jpg,right,1427.9249999672174,true,low,NA,NA,NA,NA,NA,NA,NA,false
jhznDFkp,3xabxm4ak4i034slkfn2gjsp1ra8qu,3yhh42uu5fs9h25zo87tv2j4vee0l7,jhznDFkp,2020-0188,2020-06-04,10:42:33,11:07:55,NA,incomplete,137,race,2,0,left,C_M_14.jpg,C_F_12.jpg,A_M_11.jpg,left,884.3300000298768,true,low,NA,NA,NA,NA,NA,NA,NA,false
jhznDFkp,3xabxm4ak4i034slkfn2gjsp1ra8qu,3yhh42uu5fs9h25zo87tv2j4vee0l7,jhznDFkp,2020-0188,2020-06-04,10:42:33,11:07:55,NA,incomplete,138,race,2,1,right,A_M_16.jpg,C_M_06.jpg,A_F_10.jpg,right,665.2299999259412,true,low,NA,NA,NA,NA,NA,NA,NA,false
jhznDFkp,3xabxm4ak4i034slkfn2gjsp1ra8qu,3yhh42uu5fs9h25zo87tv2j4vee0l7,jhznDFkp,2020-0188,2020-06-04,10:42:33,11:07:55,NA,incomplete,139,race,2,1,left,A_M_11.jpg,A_F_04.jpg,C_M_01.jpg,left,908.6200000019744,true,low,NA,NA,NA,NA,NA,NA,NA,false
jhznDFkp,3xabxm4ak4i034slkfn2gjsp1ra8qu,3yhh42uu5fs9h25zo87tv2j4vee0l7,jhznDFkp,2020-0188,2020-06-04,10:42:33,11:07:55,NA,incomplete,140,gender,3,1,left,C_M_06.jpg,A_M_03.jpg,C_F_11.jpg,left,1040.0249999947846,true,low,NA,NA,NA,NA,NA,NA,NA,false
jhznDFkp,3xabxm4ak4i034slkfn2gjsp1ra8qu,3yhh42uu5fs9h25zo87tv2j4vee0l7,jhznDFkp,2020-0188,2020-06-04,10:42:33,11:07:55,NA,incomplete,141,gender,3,0,right,A_M_13.jpg,A_F_15.jpg,C_M_14.jpg,left,730.6600000010803,false,low,NA,NA,NA,NA,NA,NA,NA,false
jhznDFkp,3xabxm4ak4i034slkfn2gjsp1ra8qu,3yhh42uu5fs9h25zo87tv2j4vee0l7,jhznDFkp,2020-0188,2020-06-04,10:42:33,11:07:55,NA,incomplete,142,gender,3,1,left,C_F_11.jpg,A_F_07.jpg,C_M_05.jpg,left,743.3799999998882,true,low,NA,NA,NA,NA,NA,NA,NA,false
jhznDFkp,3xabxm4ak4i034slkfn2gjsp1ra8qu,3yhh42uu5fs9h25zo87tv2j4vee0l7,jhznDFkp,2020-0188,2020-06-04,10:42:33,11:07:55,NA,incomplete,143,gender,3,1,left,C_M_01.jpg,A_M_04.jpg,C_F_08.jpg,right,1534.0150000993162,false,low,NA,NA,NA,NA,NA,NA,NA,false
jhznDFkp,3xabxm4ak4i034slkfn2gjsp1ra8qu,3yhh42uu5fs9h25zo87tv2j4vee0l7,jhznDFkp,2020-0188,2020-06-04,10:42:33,11:07:55,NA,incomplete,144,gender,3,1,right,C_M_09.jpg,C_F_08.jpg,A_M_05.jpg,left,816.8050000676885,false,low,NA,NA,NA,NA,NA,NA,NA,false
jhznDFkp,3xabxm4ak4i034slkfn2gjsp1ra8qu,3yhh42uu5fs9h25zo87tv2j4vee0l7,jhznDFkp,2020-0188,2020-06-04,10:42:33,11:07:55,NA,incomplete,145,gender,3,1,right,C_M_11.jpg,C_F_04.jpg,A_M_08.jpg,right,637.5000000698492,true,low,NA,NA,NA,NA,NA,NA,NA,false
jhznDFkp,3xabxm4ak4i034slkfn2gjsp1ra8qu,3yhh42uu5fs9h25zo87tv2j4vee0l7,jhznDFkp,2020-0188,2020-06-04,10:42:33,11:07:55,NA,incomplete,146,gender,3,0,left,C_F_11.jpg,A_F_07.jpg,C_M_02.jpg,left,983.5699999239296,true,low,NA,NA,NA,NA,NA,NA,NA,false
jhznDFkp,3xabxm4ak4i034slkfn2gjsp1ra8qu,3yhh42uu5fs9h25zo87tv2j4vee0l7,jhznDFkp,2020-0188,2020-06-04,10:42:33,11:07:55,NA,incomplete,147,gender,3,1,right,C_M_12.jpg,C_F_11.jpg,A_M_02.jpg,left,899.3599999230355,false,low,NA,NA,NA,NA,NA,NA,NA,false
jhznDFkp,3xabxm4ak4i034slkfn2gjsp1ra8qu,3yhh42uu5fs9h25zo87tv2j4vee0l7,jhznDFkp,2020-0188,2020-06-04,10:42:33,11:07:55,NA,incomplete,148,gender,3,1,left,A_M_12.jpg,C_M_07.jpg,A_F_02.jpg,left,891.1249999655411,true,low,NA,NA,NA,NA,NA,NA,NA,false
jhznDFkp,3xabxm4ak4i034slkfn2gjsp1ra8qu,3yhh42uu5fs9h25zo87tv2j4vee0l7,jhznDFkp,2020-0188,2020-06-04,10:42:33,11:07:55,NA,incomplete,149,gender,3,0,right,C_M_12.jpg,C_F_02.jpg,A_M_11.jpg,right,840.7900000456721,true,low,NA,NA,NA,NA,NA,NA,NA,false
jhznDFkp,3xabxm4ak4i034slkfn2gjsp1ra8qu,3yhh42uu5fs9h25zo87tv2j4vee0l7,jhznDFkp,2020-0188,2020-06-04,10:42:33,11:07:55,NA,incomplete,150,gender,3,1,left,A_F_04.jpg,C_F_15.jpg,A_M_08.jpg,right,973.0599999893457,false,low,NA,NA,NA,NA,NA,NA,NA,false
jhznDFkp,3xabxm4ak4i034slkfn2gjsp1ra8qu,3yhh42uu5fs9h25zo87tv2j4vee0l7,jhznDFkp,2020-0188,2020-06-04,10:42:33,11:07:55,NA,incomplete,151,gender,3,1,right,A_F_11.jpg,A_M_06.jpg,C_F_13.jpg,left,1318.9649999840185,false,low,NA,NA,NA,NA,NA,NA,NA,false
jhznDFkp,3xabxm4ak4i034slkfn2gjsp1ra8qu,3yhh42uu5fs9h25zo87tv2j4vee0l7,jhznDFkp,2020-0188,2020-06-04,10:42:33,11:07:55,NA,incomplete,152,gender,3,1,left,C_M_10.jpg,A_M_03.jpg,C_F_04.jpg,none,0,false,low,NA,NA,NA,NA,NA,NA,NA,false
jhznDFkp,3xabxm4ak4i034slkfn2gjsp1ra8qu,3yhh42uu5fs9h25zo87tv2j4vee0l7,jhznDFkp,2020-0188,2020-06-04,10:42:33,11:07:55,NA,incomplete,153,gender,3,1,right,A_M_05.jpg,A_F_06.jpg,C_M_11.jpg,right,669.2699999548495,true,low,NA,NA,NA,NA,NA,NA,NA,false
jhznDFkp,3xabxm4ak4i034slkfn2gjsp1ra8qu,3yhh42uu5fs9h25zo87tv2j4vee0l7,jhznDFkp,2020-0188,2020-06-04,10:42:33,11:07:55,NA,incomplete,154,gender,3,0,right,A_M_01.jpg,A_F_10.jpg,C_M_08.jpg,right,534.4000000040978,true,low,NA,NA,NA,NA,NA,NA,NA,false
jhznDFkp,3xabxm4ak4i034slkfn2gjsp1ra8qu,3yhh42uu5fs9h25zo87tv2j4vee0l7,jhznDFkp,2020-0188,2020-06-04,10:42:33,11:07:55,NA,incomplete,155,gender,3,1,left,A_M_06.jpg,C_M_02.jpg,A_F_03.jpg,right,507.35500000882894,false,low,NA,NA,NA,NA,NA,NA,NA,false
jhznDFkp,3xabxm4ak4i034slkfn2gjsp1ra8qu,3yhh42uu5fs9h25zo87tv2j4vee0l7,jhznDFkp,2020-0188,2020-06-04,10:42:33,11:07:55,NA,incomplete,156,gender,3,0,left,C_F_15.jpg,A_F_08.jpg,C_M_06.jpg,left,573.8250000867993,true,low,NA,NA,NA,NA,NA,NA,NA,false
jhznDFkp,3xabxm4ak4i034slkfn2gjsp1ra8qu,3yhh42uu5fs9h25zo87tv2j4vee0l7,jhznDFkp,2020-0188,2020-06-04,10:42:33,11:07:55,NA,incomplete,157,gender,3,1,left,A_F_12.jpg,C_F_02.jpg,A_M_08.jpg,right,589.0699999872595,false,low,NA,NA,NA,NA,NA,NA,NA,false
jhznDFkp,3xabxm4ak4i034slkfn2gjsp1ra8qu,3yhh42uu5fs9h25zo87tv2j4vee0l7,jhznDFkp,2020-0188,2020-06-04,10:42:33,11:07:55,NA,incomplete,158,gender,3,1,left,A_F_09.jpg,C_F_14.jpg,A_M_07.jpg,right,632.2800000198185,false,low,NA,NA,NA,NA,NA,NA,NA,false
jhznDFkp,3xabxm4ak4i034slkfn2gjsp1ra8qu,3yhh42uu5fs9h25zo87tv2j4vee0l7,jhznDFkp,2020-0188,2020-06-04,10:42:33,11:07:55,NA,incomplete,159,gender,3,1,left,A_F_14.jpg,C_F_11.jpg,A_M_06.jpg,left,674.8849999858066,true,low,NA,NA,NA,NA,NA,NA,NA,false
jhznDFkp,3xabxm4ak4i034slkfn2gjsp1ra8qu,3yhh42uu5fs9h25zo87tv2j4vee0l7,jhznDFkp,2020-0188,2020-06-04,10:42:33,11:07:55,NA,incomplete,160,race,2,1,left,A_M_13.jpg,A_F_08.jpg,C_M_11.jpg,left,795.7600000081584,true,low,NA,NA,NA,NA,NA,NA,NA,false
jhznDFkp,3xabxm4ak4i034slkfn2gjsp1ra8qu,3yhh42uu5fs9h25zo87tv2j4vee0l7,jhznDFkp,2020-0188,2020-06-04,10:42:33,11:07:55,NA,incomplete,161,race,2,1,right,A_F_08.jpg,C_F_03.jpg,A_M_06.jpg,right,619.3399999756366,true,low,NA,NA,NA,NA,NA,NA,NA,false
jhznDFkp,3xabxm4ak4i034slkfn2gjsp1ra8qu,3yhh42uu5fs9h25zo87tv2j4vee0l7,jhznDFkp,2020-0188,2020-06-04,10:42:33,11:07:55,NA,incomplete,162,race,2,1,right,A_M_14.jpg,C_M_07.jpg,A_F_09.jpg,left,1162.0200000470504,false,low,NA,NA,NA,NA,NA,NA,NA,false
jhznDFkp,3xabxm4ak4i034slkfn2gjsp1ra8qu,3yhh42uu5fs9h25zo87tv2j4vee0l7,jhznDFkp,2020-0188,2020-06-04,10:42:33,11:07:55,NA,incomplete,163,race,2,1,left,C_M_12.jpg,C_F_16.jpg,A_M_07.jpg,left,969.0600000321865,true,low,NA,NA,NA,NA,NA,NA,NA,false
jhznDFkp,3xabxm4ak4i034slkfn2gjsp1ra8qu,3yhh42uu5fs9h25zo87tv2j4vee0l7,jhznDFkp,2020-0188,2020-06-04,10:42:33,11:07:55,NA,incomplete,164,race,2,1,left,C_M_15.jpg,C_F_03.jpg,A_M_14.jpg,left,718.7350000021979,true,low,NA,NA,NA,NA,NA,NA,NA,false
jhznDFkp,3xabxm4ak4i034slkfn2gjsp1ra8qu,3yhh42uu5fs9h25zo87tv2j4vee0l7,jhznDFkp,2020-0188,2020-06-04,10:42:33,11:07:55,NA,incomplete,165,race,2,1,left,A_M_08.jpg,A_F_14.jpg,C_M_15.jpg,left,724.7750000096858,true,low,NA,NA,NA,NA,NA,NA,NA,false
jhznDFkp,3xabxm4ak4i034slkfn2gjsp1ra8qu,3yhh42uu5fs9h25zo87tv2j4vee0l7,jhznDFkp,2020-0188,2020-06-04,10:42:33,11:07:55,NA,incomplete,166,race,2,1,right,A_F_02.jpg,C_F_04.jpg,A_M_16.jpg,right,1385.4750000173226,true,low,NA,NA,NA,NA,NA,NA,NA,false
jhznDFkp,3xabxm4ak4i034slkfn2gjsp1ra8qu,3yhh42uu5fs9h25zo87tv2j4vee0l7,jhznDFkp,2020-0188,2020-06-04,10:42:33,11:07:55,NA,incomplete,167,race,2,1,left,A_M_14.jpg,A_F_02.jpg,C_M_01.jpg,left,758.060000021942,true,low,NA,NA,NA,NA,NA,NA,NA,false
jhznDFkp,3xabxm4ak4i034slkfn2gjsp1ra8qu,3yhh42uu5fs9h25zo87tv2j4vee0l7,jhznDFkp,2020-0188,2020-06-04,10:42:33,11:07:55,NA,incomplete,168,race,2,1,left,C_F_15.jpg,C_M_01.jpg,A_F_09.jpg,left,857.5300000375137,true,low,NA,NA,NA,NA,NA,NA,NA,false
jhznDFkp,3xabxm4ak4i034slkfn2gjsp1ra8qu,3yhh42uu5fs9h25zo87tv2j4vee0l7,jhznDFkp,2020-0188,2020-06-04,10:42:33,11:07:55,NA,incomplete,169,race,2,0,right,A_F_07.jpg,C_F_10.jpg,A_M_06.jpg,right,636.424999916926,true,low,NA,NA,NA,NA,NA,NA,NA,false
jhznDFkp,3xabxm4ak4i034slkfn2gjsp1ra8qu,3yhh42uu5fs9h25zo87tv2j4vee0l7,jhznDFkp,2020-0188,2020-06-04,10:42:33,11:07:55,NA,incomplete,170,race,2,1,right,C_F_16.jpg,A_F_01.jpg,C_M_04.jpg,left,620.6000000238419,false,low,NA,NA,NA,NA,NA,NA,NA,false
jhznDFkp,3xabxm4ak4i034slkfn2gjsp1ra8qu,3yhh42uu5fs9h25zo87tv2j4vee0l7,jhznDFkp,2020-0188,2020-06-04,10:42:33,11:07:55,NA,incomplete,171,race,2,1,right,C_F_05.jpg,A_F_12.jpg,C_M_13.jpg,right,1037.5500000081956,true,low,NA,NA,NA,NA,NA,NA,NA,false
jhznDFkp,3xabxm4ak4i034slkfn2gjsp1ra8qu,3yhh42uu5fs9h25zo87tv2j4vee0l7,jhznDFkp,2020-0188,2020-06-04,10:42:33,11:07:55,NA,incomplete,172,race,2,1,right,A_F_14.jpg,C_F_01.jpg,A_M_11.jpg,right,744.4749999558553,true,low,NA,NA,NA,NA,NA,NA,NA,false
jhznDFkp,3xabxm4ak4i034slkfn2gjsp1ra8qu,3yhh42uu5fs9h25zo87tv2j4vee0l7,jhznDFkp,2020-0188,2020-06-04,10:42:33,11:07:55,NA,incomplete,173,race,2,0,right,C_F_06.jpg,A_F_07.jpg,C_M_02.jpg,left,1458.0800000112504,false,low,NA,NA,NA,NA,NA,NA,NA,false
jhznDFkp,3xabxm4ak4i034slkfn2gjsp1ra8qu,3yhh42uu5fs9h25zo87tv2j4vee0l7,jhznDFkp,2020-0188,2020-06-04,10:42:33,11:07:55,NA,incomplete,174,race,2,1,right,C_F_06.jpg,A_F_04.jpg,C_M_13.jpg,right,633.4100000094622,true,low,NA,NA,NA,NA,NA,NA,NA,false
jhznDFkp,3xabxm4ak4i034slkfn2gjsp1ra8qu,3yhh42uu5fs9h25zo87tv2j4vee0l7,jhznDFkp,2020-0188,2020-06-04,10:42:33,11:07:55,NA,incomplete,175,race,2,1,left,C_F_12.jpg,C_M_09.jpg,A_F_11.jpg,left,1856.889999937266,true,low,NA,NA,NA,NA,NA,NA,NA,false
jhznDFkp,3xabxm4ak4i034slkfn2gjsp1ra8qu,3yhh42uu5fs9h25zo87tv2j4vee0l7,jhznDFkp,2020-0188,2020-06-04,10:42:33,11:07:55,NA,incomplete,176,race,2,1,left,A_F_09.jpg,A_M_15.jpg,C_F_12.jpg,left,954.3600000906736,true,low,NA,NA,NA,NA,NA,NA,NA,false
jhznDFkp,3xabxm4ak4i034slkfn2gjsp1ra8qu,3yhh42uu5fs9h25zo87tv2j4vee0l7,jhznDFkp,2020-0188,2020-06-04,10:42:33,11:07:55,NA,incomplete,177,race,2,1,right,C_M_08.jpg,A_M_04.jpg,C_F_05.jpg,right,1144.0749999601394,true,low,NA,NA,NA,NA,NA,NA,NA,false
jhznDFkp,3xabxm4ak4i034slkfn2gjsp1ra8qu,3yhh42uu5fs9h25zo87tv2j4vee0l7,jhznDFkp,2020-0188,2020-06-04,10:42:33,11:07:55,NA,incomplete,178,race,2,1,right,A_M_16.jpg,C_M_09.jpg,A_F_03.jpg,right,884.250000002794,true,low,NA,NA,NA,NA,NA,NA,NA,false
jhznDFkp,3xabxm4ak4i034slkfn2gjsp1ra8qu,3yhh42uu5fs9h25zo87tv2j4vee0l7,jhznDFkp,2020-0188,2020-06-04,10:42:33,11:07:55,NA,incomplete,179,race,2,1,right,A_F_02.jpg,C_F_08.jpg,A_M_15.jpg,right,906.0749999480322,true,low,NA,NA,NA,NA,NA,NA,NA,false
jhznDFkp,3xabxm4ak4i034slkfn2gjsp1ra8qu,3yhh42uu5fs9h25zo87tv2j4vee0l7,jhznDFkp,2020-0188,2020-06-04,10:42:33,11:07:55,NA,incomplete,180,gender,3,0,left,A_F_14.jpg,C_F_01.jpg,A_M_16.jpg,right,884.7550000064075,false,low,NA,NA,NA,NA,NA,NA,NA,false
jhznDFkp,3xabxm4ak4i034slkfn2gjsp1ra8qu,3yhh42uu5fs9h25zo87tv2j4vee0l7,jhznDFkp,2020-0188,2020-06-04,10:42:33,11:07:55,NA,incomplete,181,gender,3,1,right,A_M_10.jpg,A_F_07.jpg,C_M_16.jpg,left,1436.1750000389293,false,low,NA,NA,NA,NA,NA,NA,NA,false
jhznDFkp,3xabxm4ak4i034slkfn2gjsp1ra8qu,3yhh42uu5fs9h25zo87tv2j4vee0l7,jhznDFkp,2020-0188,2020-06-04,10:42:33,11:07:55,NA,incomplete,182,gender,3,1,left,C_M_06.jpg,A_M_12.jpg,C_F_16.jpg,right,956.2699999660254,false,low,NA,NA,NA,NA,NA,NA,NA,false
jhznDFkp,3xabxm4ak4i034slkfn2gjsp1ra8qu,3yhh42uu5fs9h25zo87tv2j4vee0l7,jhznDFkp,2020-0188,2020-06-04,10:42:33,11:07:55,NA,incomplete,183,gender,3,0,left,A_M_07.jpg,C_M_02.jpg,A_F_16.jpg,left,725.1049999613315,true,low,NA,NA,NA,NA,NA,NA,NA,false
jhznDFkp,3xabxm4ak4i034slkfn2gjsp1ra8qu,3yhh42uu5fs9h25zo87tv2j4vee0l7,jhznDFkp,2020-0188,2020-06-04,10:42:33,11:07:55,NA,incomplete,184,gender,3,1,right,A_M_15.jpg,A_F_16.jpg,C_M_13.jpg,left,742.8650000365451,false,low,NA,NA,NA,NA,NA,NA,NA,false
jhznDFkp,3xabxm4ak4i034slkfn2gjsp1ra8qu,3yhh42uu5fs9h25zo87tv2j4vee0l7,jhznDFkp,2020-0188,2020-06-04,10:42:33,11:07:55,NA,incomplete,185,gender,3,0,right,A_F_04.jpg,A_M_05.jpg,C_F_13.jpg,right,685.1899999892339,true,low,NA,NA,NA,NA,NA,NA,NA,false
jhznDFkp,3xabxm4ak4i034slkfn2gjsp1ra8qu,3yhh42uu5fs9h25zo87tv2j4vee0l7,jhznDFkp,2020-0188,2020-06-04,10:42:33,11:07:55,NA,incomplete,186,gender,3,1,left,A_M_09.jpg,C_M_07.jpg,A_F_02.jpg,right,661.1000000266358,false,low,NA,NA,NA,NA,NA,NA,NA,false
jhznDFkp,3xabxm4ak4i034slkfn2gjsp1ra8qu,3yhh42uu5fs9h25zo87tv2j4vee0l7,jhznDFkp,2020-0188,2020-06-04,10:42:33,11:07:55,NA,incomplete,187,gender,3,1,right,C_F_11.jpg,C_M_02.jpg,A_F_15.jpg,right,663.4000000776723,true,low,NA,NA,NA,NA,NA,NA,NA,false
jhznDFkp,3xabxm4ak4i034slkfn2gjsp1ra8qu,3yhh42uu5fs9h25zo87tv2j4vee0l7,jhznDFkp,2020-0188,2020-06-04,10:42:33,11:07:55,NA,incomplete,188,gender,3,1,left,C_F_11.jpg,A_F_04.jpg,C_M_02.jpg,right,569.2000000271946,false,low,NA,NA,NA,NA,NA,NA,NA,false
jhznDFkp,3xabxm4ak4i034slkfn2gjsp1ra8qu,3yhh42uu5fs9h25zo87tv2j4vee0l7,jhznDFkp,2020-0188,2020-06-04,10:42:33,11:07:55,NA,incomplete,189,gender,3,1,left,C_F_14.jpg,A_F_03.jpg,C_M_10.jpg,right,572.649999987334,false,low,NA,NA,NA,NA,NA,NA,NA,false
jhznDFkp,3xabxm4ak4i034slkfn2gjsp1ra8qu,3yhh42uu5fs9h25zo87tv2j4vee0l7,jhznDFkp,2020-0188,2020-06-04,10:42:33,11:07:55,NA,incomplete,190,gender,3,0,right,C_F_14.jpg,C_M_15.jpg,A_F_09.jpg,left,522.8399999905378,false,low,NA,NA,NA,NA,NA,NA,NA,false
jhznDFkp,3xabxm4ak4i034slkfn2gjsp1ra8qu,3yhh42uu5fs9h25zo87tv2j4vee0l7,jhznDFkp,2020-0188,2020-06-04,10:42:33,11:07:55,NA,incomplete,191,gender,3,1,left,A_M_10.jpg,C_M_05.jpg,A_F_11.jpg,right,1359.1199999209493,false,low,NA,NA,NA,NA,NA,NA,NA,false
jhznDFkp,3xabxm4ak4i034slkfn2gjsp1ra8qu,3yhh42uu5fs9h25zo87tv2j4vee0l7,jhznDFkp,2020-0188,2020-06-04,10:42:33,11:07:55,NA,incomplete,192,gender,3,1,right,C_M_03.jpg,C_F_01.jpg,A_M_07.jpg,right,1427.93000000529,true,low,NA,NA,NA,NA,NA,NA,NA,false
jhznDFkp,3xabxm4ak4i034slkfn2gjsp1ra8qu,3yhh42uu5fs9h25zo87tv2j4vee0l7,jhznDFkp,2020-0188,2020-06-04,10:42:33,11:07:55,NA,incomplete,193,gender,3,1,left,A_F_16.jpg,C_F_02.jpg,A_M_12.jpg,left,1253.220000071451,true,low,NA,NA,NA,NA,NA,NA,NA,false
jhznDFkp,3xabxm4ak4i034slkfn2gjsp1ra8qu,3yhh42uu5fs9h25zo87tv2j4vee0l7,jhznDFkp,2020-0188,2020-06-04,10:42:33,11:07:55,NA,incomplete,194,gender,3,1,left,A_M_13.jpg,C_M_16.jpg,A_F_06.jpg,left,884.0499999932945,true,low,NA,NA,NA,NA,NA,NA,NA,false
jhznDFkp,3xabxm4ak4i034slkfn2gjsp1ra8qu,3yhh42uu5fs9h25zo87tv2j4vee0l7,jhznDFkp,2020-0188,2020-06-04,10:42:33,11:07:55,NA,incomplete,195,gender,3,1,right,A_F_07.jpg,A_M_10.jpg,C_F_11.jpg,right,688.994999974966,true,low,NA,NA,NA,NA,NA,NA,NA,false
jhznDFkp,3xabxm4ak4i034slkfn2gjsp1ra8qu,3yhh42uu5fs9h25zo87tv2j4vee0l7,jhznDFkp,2020-0188,2020-06-04,10:42:33,11:07:55,NA,incomplete,196,gender,3,1,left,C_F_12.jpg,A_F_16.jpg,C_M_07.jpg,left,652.0000000018626,true,low,NA,NA,NA,NA,NA,NA,NA,false
jhznDFkp,3xabxm4ak4i034slkfn2gjsp1ra8qu,3yhh42uu5fs9h25zo87tv2j4vee0l7,jhznDFkp,2020-0188,2020-06-04,10:42:33,11:07:55,NA,incomplete,197,gender,3,1,left,A_M_03.jpg,C_M_07.jpg,A_F_06.jpg,right,1061.005000025034,false,low,NA,NA,NA,NA,NA,NA,NA,false
jhznDFkp,3xabxm4ak4i034slkfn2gjsp1ra8qu,3yhh42uu5fs9h25zo87tv2j4vee0l7,jhznDFkp,2020-0188,2020-06-04,10:42:33,11:07:55,NA,incomplete,198,gender,3,1,right,A_F_13.jpg,A_M_08.jpg,C_F_07.jpg,right,1170.4499999759719,true,low,NA,NA,NA,NA,NA,NA,NA,false
jhznDFkp,3xabxm4ak4i034slkfn2gjsp1ra8qu,3yhh42uu5fs9h25zo87tv2j4vee0l7,jhznDFkp,2020-0188,2020-06-04,10:42:33,11:07:55,NA,incomplete,199,gender,3,1,left,A_M_02.jpg,C_M_13.jpg,A_F_09.jpg,left,1055.3749999962747,true,low,NA,NA,NA,NA,NA,NA,NA,false
jhznDFkp,3xabxm4ak4i034slkfn2gjsp1ra8qu,3yhh42uu5fs9h25zo87tv2j4vee0l7,jhznDFkp,2020-0188,2020-06-04,10:42:33,11:07:55,NA,incomplete,200,race,2,0,left,A_M_01.jpg,A_F_10.jpg,C_M_04.jpg,right,972.5099999923259,false,low,NA,NA,NA,NA,NA,NA,NA,false
jhznDFkp,3xabxm4ak4i034slkfn2gjsp1ra8qu,3yhh42uu5fs9h25zo87tv2j4vee0l7,jhznDFkp,2020-0188,2020-06-04,10:42:33,11:07:55,NA,incomplete,201,race,2,1,right,C_M_01.jpg,A_M_08.jpg,C_F_04.jpg,left,1109.4649999868125,false,low,NA,NA,NA,NA,NA,NA,NA,false
jhznDFkp,3xabxm4ak4i034slkfn2gjsp1ra8qu,3yhh42uu5fs9h25zo87tv2j4vee0l7,jhznDFkp,2020-0188,2020-06-04,10:42:33,11:07:55,NA,incomplete,202,race,2,1,right,C_M_10.jpg,A_M_06.jpg,C_F_07.jpg,left,936.3599999342114,false,low,NA,NA,NA,NA,NA,NA,NA,false
jhznDFkp,3xabxm4ak4i034slkfn2gjsp1ra8qu,3yhh42uu5fs9h25zo87tv2j4vee0l7,jhznDFkp,2020-0188,2020-06-04,10:42:33,11:07:55,NA,incomplete,203,race,2,0,left,C_F_03.jpg,C_M_15.jpg,A_F_09.jpg,right,1357.770000002347,false,low,NA,NA,NA,NA,NA,NA,NA,false
jhznDFkp,3xabxm4ak4i034slkfn2gjsp1ra8qu,3yhh42uu5fs9h25zo87tv2j4vee0l7,jhznDFkp,2020-0188,2020-06-04,10:42:33,11:07:55,NA,incomplete,204,race,2,1,left,A_M_09.jpg,A_F_06.jpg,C_M_15.jpg,right,1396.40500000678,false,low,NA,NA,NA,NA,NA,NA,NA,false
jhznDFkp,3xabxm4ak4i034slkfn2gjsp1ra8qu,3yhh42uu5fs9h25zo87tv2j4vee0l7,jhznDFkp,2020-0188,2020-06-04,10:42:33,11:07:55,NA,incomplete,205,race,2,1,right,C_M_14.jpg,A_M_03.jpg,C_F_06.jpg,left,664.2700000666082,false,low,NA,NA,NA,NA,NA,NA,NA,false
jhznDFkp,3xabxm4ak4i034slkfn2gjsp1ra8qu,3yhh42uu5fs9h25zo87tv2j4vee0l7,jhznDFkp,2020-0188,2020-06-04,10:42:33,11:07:55,NA,incomplete,206,race,2,0,right,A_M_15.jpg,C_M_08.jpg,A_F_05.jpg,left,838.3050000993535,false,low,NA,NA,NA,NA,NA,NA,NA,false
jhznDFkp,3xabxm4ak4i034slkfn2gjsp1ra8qu,3yhh42uu5fs9h25zo87tv2j4vee0l7,jhznDFkp,2020-0188,2020-06-04,10:42:33,11:07:55,NA,incomplete,207,race,2,1,left,C_M_08.jpg,C_F_04.jpg,A_M_12.jpg,right,698.2500000158325,false,low,NA,NA,NA,NA,NA,NA,NA,false
jhznDFkp,3xabxm4ak4i034slkfn2gjsp1ra8qu,3yhh42uu5fs9h25zo87tv2j4vee0l7,jhznDFkp,2020-0188,2020-06-04,10:42:33,11:07:55,NA,incomplete,208,race,2,0,left,A_F_11.jpg,A_M_13.jpg,C_F_14.jpg,left,647.8900000220165,true,low,NA,NA,NA,NA,NA,NA,NA,false
jhznDFkp,3xabxm4ak4i034slkfn2gjsp1ra8qu,3yhh42uu5fs9h25zo87tv2j4vee0l7,jhznDFkp,2020-0188,2020-06-04,10:42:33,11:07:55,NA,incomplete,209,race,2,1,left,C_M_08.jpg,C_F_10.jpg,A_M_05.jpg,right,1486.7700000759214,false,low,NA,NA,NA,NA,NA,NA,NA,false
jhznDFkp,3xabxm4ak4i034slkfn2gjsp1ra8qu,3yhh42uu5fs9h25zo87tv2j4vee0l7,jhznDFkp,2020-0188,2020-06-04,10:42:33,11:07:55,NA,incomplete,210,race,2,1,left,C_M_16.jpg,C_F_03.jpg,A_M_11.jpg,right,1001.1299999896437,false,low,NA,NA,NA,NA,NA,NA,NA,false
jhznDFkp,3xabxm4ak4i034slkfn2gjsp1ra8qu,3yhh42uu5fs9h25zo87tv2j4vee0l7,jhznDFkp,2020-0188,2020-06-04,10:42:33,11:07:55,NA,incomplete,211,race,2,1,right,C_F_08.jpg,A_F_15.jpg,C_M_14.jpg,right,765.9899999853224,true,low,NA,NA,NA,NA,NA,NA,NA,false
jhznDFkp,3xabxm4ak4i034slkfn2gjsp1ra8qu,3yhh42uu5fs9h25zo87tv2j4vee0l7,jhznDFkp,2020-0188,2020-06-04,10:42:33,11:07:55,NA,incomplete,212,race,2,1,left,C_M_01.jpg,C_F_03.jpg,A_M_14.jpg,right,675.1599999843165,false,low,NA,NA,NA,NA,NA,NA,NA,false
jhznDFkp,3xabxm4ak4i034slkfn2gjsp1ra8qu,3yhh42uu5fs9h25zo87tv2j4vee0l7,jhznDFkp,2020-0188,2020-06-04,10:42:33,11:07:55,NA,incomplete,213,race,2,1,left,A_F_14.jpg,A_M_02.jpg,C_F_09.jpg,left,1656.749999965541,true,low,NA,NA,NA,NA,NA,NA,NA,false
jhznDFkp,3xabxm4ak4i034slkfn2gjsp1ra8qu,3yhh42uu5fs9h25zo87tv2j4vee0l7,jhznDFkp,2020-0188,2020-06-04,10:42:33,11:07:55,NA,incomplete,214,race,2,1,left,C_F_05.jpg,C_M_01.jpg,A_F_13.jpg,right,1305.5800000438467,false,low,NA,NA,NA,NA,NA,NA,NA,false
jhznDFkp,3xabxm4ak4i034slkfn2gjsp1ra8qu,3yhh42uu5fs9h25zo87tv2j4vee0l7,jhznDFkp,2020-0188,2020-06-04,10:42:33,11:07:55,NA,incomplete,215,race,2,0,right,A_F_13.jpg,C_F_02.jpg,A_M_14.jpg,left,694.3550000432879,false,low,NA,NA,NA,NA,NA,NA,NA,false
jhznDFkp,3xabxm4ak4i034slkfn2gjsp1ra8qu,3yhh42uu5fs9h25zo87tv2j4vee0l7,jhznDFkp,2020-0188,2020-06-04,10:42:33,11:07:55,NA,incomplete,216,race,2,1,right,C_M_08.jpg,A_M_13.jpg,C_F_06.jpg,left,1719.64999998454,false,low,NA,NA,NA,NA,NA,NA,NA,false
jhznDFkp,3xabxm4ak4i034slkfn2gjsp1ra8qu,3yhh42uu5fs9h25zo87tv2j4vee0l7,jhznDFkp,2020-0188,2020-06-04,10:42:33,11:07:55,NA,incomplete,217,race,2,1,right,A_F_03.jpg,C_F_12.jpg,A_M_16.jpg,left,904.3349999701604,false,low,NA,NA,NA,NA,NA,NA,NA,false
jhznDFkp,3xabxm4ak4i034slkfn2gjsp1ra8qu,3yhh42uu5fs9h25zo87tv2j4vee0l7,jhznDFkp,2020-0188,2020-06-04,10:42:33,11:07:55,NA,incomplete,218,race,2,1,right,C_F_08.jpg,A_F_15.jpg,C_M_04.jpg,right,1792.1499999938533,true,low,NA,NA,NA,NA,NA,NA,NA,false
jhznDFkp,3xabxm4ak4i034slkfn2gjsp1ra8qu,3yhh42uu5fs9h25zo87tv2j4vee0l7,jhznDFkp,2020-0188,2020-06-04,10:42:33,11:07:55,NA,incomplete,219,race,2,1,right,A_F_03.jpg,C_F_06.jpg,A_M_13.jpg,right,1031.5949999494478,true,low,NA,NA,NA,NA,NA,NA,NA,false
jhznDFkp,3xabxm4ak4i034slkfn2gjsp1ra8qu,3yhh42uu5fs9h25zo87tv2j4vee0l7,jhznDFkp,2020-0188,2020-06-04,10:42:33,11:07:55,NA,incomplete,220,gender,3,1,left,A_M_09.jpg,C_M_06.jpg,A_F_02.jpg,right,945.160000002943,false,low,NA,NA,NA,NA,NA,NA,NA,false
jhznDFkp,3xabxm4ak4i034slkfn2gjsp1ra8qu,3yhh42uu5fs9h25zo87tv2j4vee0l7,jhznDFkp,2020-0188,2020-06-04,10:42:33,11:07:55,NA,incomplete,221,gender,3,1,right,A_M_05.jpg,A_F_08.jpg,C_M_13.jpg,left,1209.069999982603,false,low,NA,NA,NA,NA,NA,NA,NA,false
jhznDFkp,3xabxm4ak4i034slkfn2gjsp1ra8qu,3yhh42uu5fs9h25zo87tv2j4vee0l7,jhznDFkp,2020-0188,2020-06-04,10:42:33,11:07:55,NA,incomplete,222,gender,3,1,right,C_M_12.jpg,C_F_13.jpg,A_M_05.jpg,right,548.1999999610707,true,low,NA,NA,NA,NA,NA,NA,NA,false
jhznDFkp,3xabxm4ak4i034slkfn2gjsp1ra8qu,3yhh42uu5fs9h25zo87tv2j4vee0l7,jhznDFkp,2020-0188,2020-06-04,10:42:33,11:07:55,NA,incomplete,223,gender,3,1,left,A_F_15.jpg,C_F_09.jpg,A_M_01.jpg,right,949.1400000406429,false,low,NA,NA,NA,NA,NA,NA,NA,false
jhznDFkp,3xabxm4ak4i034slkfn2gjsp1ra8qu,3yhh42uu5fs9h25zo87tv2j4vee0l7,jhznDFkp,2020-0188,2020-06-04,10:42:33,11:07:55,NA,incomplete,224,gender,3,1,left,A_M_04.jpg,C_M_14.jpg,A_F_05.jpg,right,632.7349999919534,false,low,NA,NA,NA,NA,NA,NA,NA,false
jhznDFkp,3xabxm4ak4i034slkfn2gjsp1ra8qu,3yhh42uu5fs9h25zo87tv2j4vee0l7,jhznDFkp,2020-0188,2020-06-04,10:42:33,11:07:55,NA,incomplete,225,gender,3,1,left,C_M_02.jpg,A_M_09.jpg,C_F_01.jpg,right,1326.725000049919,false,low,NA,NA,NA,NA,NA,NA,NA,false
jhznDFkp,3xabxm4ak4i034slkfn2gjsp1ra8qu,3yhh42uu5fs9h25zo87tv2j4vee0l7,jhznDFkp,2020-0188,2020-06-04,10:42:33,11:07:55,NA,incomplete,226,gender,3,1,right,C_M_12.jpg,C_F_07.jpg,A_M_08.jpg,left,1119.5199999492615,false,low,NA,NA,NA,NA,NA,NA,NA,false
jhznDFkp,3xabxm4ak4i034slkfn2gjsp1ra8qu,3yhh42uu5fs9h25zo87tv2j4vee0l7,jhznDFkp,2020-0188,2020-06-04,10:42:33,11:07:55,NA,incomplete,227,gender,3,1,right,A_M_12.jpg,A_F_02.jpg,C_M_04.jpg,left,1021.6299999738112,false,low,NA,NA,NA,NA,NA,NA,NA,false
jhznDFkp,3xabxm4ak4i034slkfn2gjsp1ra8qu,3yhh42uu5fs9h25zo87tv2j4vee0l7,jhznDFkp,2020-0188,2020-06-04,10:42:33,11:07:55,NA,incomplete,228,gender,3,1,left,A_M_05.jpg,C_M_10.jpg,A_F_06.jpg,left,1350.6899999920279,true,low,NA,NA,NA,NA,NA,NA,NA,false
jhznDFkp,3xabxm4ak4i034slkfn2gjsp1ra8qu,3yhh42uu5fs9h25zo87tv2j4vee0l7,jhznDFkp,2020-0188,2020-06-04,10:42:33,11:07:55,NA,incomplete,229,gender,3,1,left,A_M_03.jpg,C_M_01.jpg,A_F_15.jpg,left,1635.4849999770522,true,low,NA,NA,NA,NA,NA,NA,NA,false
jhznDFkp,3xabxm4ak4i034slkfn2gjsp1ra8qu,3yhh42uu5fs9h25zo87tv2j4vee0l7,jhznDFkp,2020-0188,2020-06-04,10:42:33,11:07:55,NA,incomplete,230,gender,3,1,right,C_F_02.jpg,C_M_04.jpg,A_F_07.jpg,right,1113.6049999622628,true,low,NA,NA,NA,NA,NA,NA,NA,false
jhznDFkp,3xabxm4ak4i034slkfn2gjsp1ra8qu,3yhh42uu5fs9h25zo87tv2j4vee0l7,jhznDFkp,2020-0188,2020-06-04,10:42:33,11:07:55,NA,incomplete,231,gender,3,1,left,A_M_01.jpg,C_M_13.jpg,A_F_02.jpg,right,687.6250000204891,false,low,NA,NA,NA,NA,NA,NA,NA,false
jhznDFkp,3xabxm4ak4i034slkfn2gjsp1ra8qu,3yhh42uu5fs9h25zo87tv2j4vee0l7,jhznDFkp,2020-0188,2020-06-04,10:42:33,11:07:55,NA,incomplete,232,gender,3,1,left,A_F_16.jpg,C_F_05.jpg,A_M_09.jpg,left,1347.53999998793,true,low,NA,NA,NA,NA,NA,NA,NA,false
jhznDFkp,3xabxm4ak4i034slkfn2gjsp1ra8qu,3yhh42uu5fs9h25zo87tv2j4vee0l7,jhznDFkp,2020-0188,2020-06-04,10:42:33,11:07:55,NA,incomplete,233,gender,3,0,right,A_M_02.jpg,A_F_01.jpg,C_M_12.jpg,left,1109.7849999787286,false,low,NA,NA,NA,NA,NA,NA,NA,false
jhznDFkp,3xabxm4ak4i034slkfn2gjsp1ra8qu,3yhh42uu5fs9h25zo87tv2j4vee0l7,jhznDFkp,2020-0188,2020-06-04,10:42:33,11:07:55,NA,incomplete,234,gender,3,1,left,C_M_06.jpg,A_M_15.jpg,C_F_11.jpg,right,806.0200000181794,false,low,NA,NA,NA,NA,NA,NA,NA,false
jhznDFkp,3xabxm4ak4i034slkfn2gjsp1ra8qu,3yhh42uu5fs9h25zo87tv2j4vee0l7,jhznDFkp,2020-0188,2020-06-04,10:42:33,11:07:55,NA,incomplete,235,gender,3,1,left,A_M_16.jpg,C_M_01.jpg,A_F_06.jpg,left,1157.704999903217,true,low,NA,NA,NA,NA,NA,NA,NA,false
jhznDFkp,3xabxm4ak4i034slkfn2gjsp1ra8qu,3yhh42uu5fs9h25zo87tv2j4vee0l7,jhznDFkp,2020-0188,2020-06-04,10:42:33,11:07:55,NA,incomplete,236,gender,3,0,left,A_M_04.jpg,C_M_11.jpg,A_F_03.jpg,left,1321.9200000166893,true,low,NA,NA,NA,NA,NA,NA,NA,false
jhznDFkp,3xabxm4ak4i034slkfn2gjsp1ra8qu,3yhh42uu5fs9h25zo87tv2j4vee0l7,jhznDFkp,2020-0188,2020-06-04,10:42:33,11:07:55,NA,incomplete,237,gender,3,1,right,C_F_02.jpg,C_M_01.jpg,A_F_04.jpg,right,1406.7049999721348,true,low,NA,NA,NA,NA,NA,NA,NA,false
jhznDFkp,3xabxm4ak4i034slkfn2gjsp1ra8qu,3yhh42uu5fs9h25zo87tv2j4vee0l7,jhznDFkp,2020-0188,2020-06-04,10:42:33,11:07:55,NA,incomplete,238,gender,3,1,right,A_M_14.jpg,A_F_16.jpg,C_M_04.jpg,left,1155.3449999773875,false,low,NA,NA,NA,NA,NA,NA,NA,false
jhznDFkp,3xabxm4ak4i034slkfn2gjsp1ra8qu,3yhh42uu5fs9h25zo87tv2j4vee0l7,jhznDFkp,2020-0188,2020-06-04,10:42:33,11:07:55,NA,incomplete,239,gender,3,1,left,A_M_08.jpg,C_M_15.jpg,A_F_11.jpg,right,704.1399999288842,false,low,NA,NA,NA,NA,NA,NA,NA,false
jhznDFkp,3xabxm4ak4i034slkfn2gjsp1ra8qu,3yhh42uu5fs9h25zo87tv2j4vee0l7,jhznDFkp,2020-0188,2020-06-04,10:42:33,11:07:55,NA,NA,instruction example,filling,NA,NA,NA,Green_Star_Chess_4.jpg,Purple_Circle_Chess_1.jpg,Blue_Triangle_Dots_4.jpg,NA,NA,NA,NA,NA,NA,NA,NA,NA,NA,NA,undefined
jhznDFkp,3xabxm4ak4i034slkfn2gjsp1ra8qu,3yhh42uu5fs9h25zo87tv2j4vee0l7,jhznDFkp,2020-0188,2020-06-04,10:42:33,11:07:55,NA,NA,instruction example,filling,NA,NA,NA,Red_Plus_Stripes_4.jpg,Blue_Star_Dots_4.jpg,Purple_Circle_Stripes_1.jpg,NA,NA,NA,NA,NA,NA,NA,NA,NA,NA,NA,undefined
jhznDFkp,3xabxm4ak4i034slkfn2gjsp1ra8qu,3yhh42uu5fs9h25zo87tv2j4vee0l7,jhznDFkp,2020-0188,2020-06-04,10:42:33,11:07:55,NA,NA,instruction example,filling,NA,NA,NA,C_F_02.jpg,C_M_06.jpg,A_F_15.jpg,NA,NA,NA,NA,NA,NA,NA,NA,NA,NA,NA,undefined
jhznDFkp,3xabxm4ak4i034slkfn2gjsp1ra8qu,3yhh42uu5fs9h25zo87tv2j4vee0l7,jhznDFkp,2020-0188,2020-06-04,10:42:33,11:07:55,NA,NA,instruction example,filling,NA,NA,NA,C_F_10.jpg,A_F_05.jpg,C_M_02.jpg,NA,NA,NA,NA,NA,NA,NA,NA,NA,NA,NA,undefined
jhznDFkp,3xabxm4ak4i034slkfn2gjsp1ra8qu,3yhh42uu5fs9h25zo87tv2j4vee0l7,jhznDFkp,2020-0188,2020-06-04,10:42:33,11:07:55,1501753.7599999923,1523118.390000076,NA,NA,NA,NA,NA,NA,NA,NA,NA,NA,NA,NA,30,White/Caucasian,Male,White,no,no,no,undefined
