workerId,hitId,assignmentId,subject,studyid,exp_date,exp_start,exp_end,time_start,time_end,trial,type,sequence,reward_validity,answer,image_top,image_left,image_right,response,response_time,response_acc,volatility,age,race,gender,ethnicity,color,vision,neuro,practice
P6xTpCr6,32204agabep2jqz0kncwzihmy16hgu,3yj6na41jft6atlj28a6uo7k1s6jp8,P6xTpCr6,2020-0188,2020-06-16,22:03:43,22:15:57,NA,incomplete,0,shape,0,0,left,Green_Circle_Dots_3.jpg,Purple_Circle_Grid_2.jpg,Green_Star_Chess_1.jpg,left,1046,true,NA,NA,NA,NA,NA,NA,NA,NA,true
P6xTpCr6,32204agabep2jqz0kncwzihmy16hgu,3yj6na41jft6atlj28a6uo7k1s6jp8,P6xTpCr6,2020-0188,2020-06-16,22:03:43,22:15:57,NA,incomplete,1,shape,0,0,left,Red_Circle_Grid_1.jpg,Green_Circle_Chess_2.jpg,Red_Star_Dots_4.jpg,left,779,true,NA,NA,NA,NA,NA,NA,NA,NA,true
P6xTpCr6,32204agabep2jqz0kncwzihmy16hgu,3yj6na41jft6atlj28a6uo7k1s6jp8,P6xTpCr6,2020-0188,2020-06-16,22:03:43,22:15:57,NA,incomplete,2,shape,0,1,right,Blue_Plus_Stripes_3.jpg,Blue_Star_Chess_2.jpg,Purple_Plus_Dots_1.jpg,right,791,true,NA,NA,NA,NA,NA,NA,NA,NA,true
P6xTpCr6,32204agabep2jqz0kncwzihmy16hgu,3yj6na41jft6atlj28a6uo7k1s6jp8,P6xTpCr6,2020-0188,2020-06-16,22:03:43,22:15:57,NA,incomplete,3,shape,0,1,right,Blue_Circle_Stripes_3.jpg,Blue_Plus_Dots_4.jpg,Green_Circle_Grid_2.jpg,right,742,true,NA,NA,NA,NA,NA,NA,NA,NA,true
P6xTpCr6,32204agabep2jqz0kncwzihmy16hgu,3yj6na41jft6atlj28a6uo7k1s6jp8,P6xTpCr6,2020-0188,2020-06-16,22:03:43,22:15:57,NA,incomplete,4,shape,0,1,left,Blue_Triangle_Dots_1.jpg,Green_Triangle_Stripes_4.jpg,Blue_Star_Grid_2.jpg,left,660,true,NA,NA,NA,NA,NA,NA,NA,NA,true
P6xTpCr6,32204agabep2jqz0kncwzihmy16hgu,3yj6na41jft6atlj28a6uo7k1s6jp8,P6xTpCr6,2020-0188,2020-06-16,22:03:43,22:15:57,NA,incomplete,5,shape,0,1,right,Blue_Circle_Grid_4.jpg,Blue_Star_Stripes_1.jpg,Purple_Circle_Chess_2.jpg,right,646,true,NA,NA,NA,NA,NA,NA,NA,NA,true
P6xTpCr6,32204agabep2jqz0kncwzihmy16hgu,3yj6na41jft6atlj28a6uo7k1s6jp8,P6xTpCr6,2020-0188,2020-06-16,22:03:43,22:15:57,NA,incomplete,6,shape,0,1,right,Blue_Plus_Dots_2.jpg,Blue_Star_Stripes_4.jpg,Red_Plus_Grid_3.jpg,right,744,true,NA,NA,NA,NA,NA,NA,NA,NA,true
P6xTpCr6,32204agabep2jqz0kncwzihmy16hgu,3yj6na41jft6atlj28a6uo7k1s6jp8,P6xTpCr6,2020-0188,2020-06-16,22:03:43,22:15:57,NA,incomplete,7,shape,0,1,right,Blue_Circle_Chess_1.jpg,Blue_Plus_Grid_3.jpg,Red_Circle_Stripes_4.jpg,left,719,false,NA,NA,NA,NA,NA,NA,NA,NA,true
P6xTpCr6,32204agabep2jqz0kncwzihmy16hgu,3yj6na41jft6atlj28a6uo7k1s6jp8,P6xTpCr6,2020-0188,2020-06-16,22:03:43,22:15:57,NA,incomplete,8,shape,0,1,right,Blue_Triangle_Dots_1.jpg,Blue_Circle_Chess_2.jpg,Purple_Triangle_Stripes_3.jpg,right,653,true,NA,NA,NA,NA,NA,NA,NA,NA,true
P6xTpCr6,32204agabep2jqz0kncwzihmy16hgu,3yj6na41jft6atlj28a6uo7k1s6jp8,P6xTpCr6,2020-0188,2020-06-16,22:03:43,22:15:57,NA,incomplete,9,shape,0,1,left,Green_Plus_Dots_1.jpg,Red_Plus_Grid_3.jpg,Green_Star_Stripes_2.jpg,left,715,true,NA,NA,NA,NA,NA,NA,NA,NA,true
P6xTpCr6,32204agabep2jqz0kncwzihmy16hgu,3yj6na41jft6atlj28a6uo7k1s6jp8,P6xTpCr6,2020-0188,2020-06-16,22:03:43,22:15:57,NA,incomplete,10,shape,0,1,left,Purple_Plus_Dots_4.jpg,Blue_Plus_Chess_2.jpg,Purple_Circle_Grid_1.jpg,left,646,true,NA,NA,NA,NA,NA,NA,NA,NA,true
P6xTpCr6,32204agabep2jqz0kncwzihmy16hgu,3yj6na41jft6atlj28a6uo7k1s6jp8,P6xTpCr6,2020-0188,2020-06-16,22:03:43,22:15:57,NA,incomplete,11,shape,0,1,left,Blue_Triangle_Grid_4.jpg,Red_Triangle_Stripes_1.jpg,Blue_Plus_Dots_3.jpg,left,651,true,NA,NA,NA,NA,NA,NA,NA,NA,true
P6xTpCr6,32204agabep2jqz0kncwzihmy16hgu,3yj6na41jft6atlj28a6uo7k1s6jp8,P6xTpCr6,2020-0188,2020-06-16,22:03:43,22:15:57,NA,incomplete,12,shape,0,1,left,Purple_Plus_Stripes_2.jpg,Blue_Plus_Dots_1.jpg,Purple_Circle_Chess_4.jpg,left,749,true,NA,NA,NA,NA,NA,NA,NA,NA,true
P6xTpCr6,32204agabep2jqz0kncwzihmy16hgu,3yj6na41jft6atlj28a6uo7k1s6jp8,P6xTpCr6,2020-0188,2020-06-16,22:03:43,22:15:57,NA,incomplete,13,shape,0,0,right,Blue_Circle_Grid_1.jpg,Blue_Triangle_Dots_4.jpg,Purple_Circle_Chess_2.jpg,right,585,true,NA,NA,NA,NA,NA,NA,NA,NA,true
P6xTpCr6,32204agabep2jqz0kncwzihmy16hgu,3yj6na41jft6atlj28a6uo7k1s6jp8,P6xTpCr6,2020-0188,2020-06-16,22:03:43,22:15:57,NA,incomplete,14,shape,0,0,right,Green_Circle_Grid_3.jpg,Green_Plus_Chess_4.jpg,Blue_Circle_Dots_1.jpg,right,613,true,NA,NA,NA,NA,NA,NA,NA,NA,true
P6xTpCr6,32204agabep2jqz0kncwzihmy16hgu,3yj6na41jft6atlj28a6uo7k1s6jp8,P6xTpCr6,2020-0188,2020-06-16,22:03:43,22:15:57,NA,incomplete,15,shape,0,1,right,Green_Circle_Dots_2.jpg,Green_Star_Stripes_3.jpg,Blue_Circle_Grid_4.jpg,right,563,true,NA,NA,NA,NA,NA,NA,NA,NA,true
P6xTpCr6,32204agabep2jqz0kncwzihmy16hgu,3yj6na41jft6atlj28a6uo7k1s6jp8,P6xTpCr6,2020-0188,2020-06-16,22:03:43,22:15:57,NA,incomplete,16,shape,0,1,right,Blue_Star_Grid_1.jpg,Blue_Triangle_Chess_2.jpg,Purple_Star_Dots_3.jpg,right,602,true,NA,NA,NA,NA,NA,NA,NA,NA,true
P6xTpCr6,32204agabep2jqz0kncwzihmy16hgu,3yj6na41jft6atlj28a6uo7k1s6jp8,P6xTpCr6,2020-0188,2020-06-16,22:03:43,22:15:57,NA,incomplete,17,shape,0,1,left,Green_Circle_Grid_1.jpg,Blue_Circle_Dots_2.jpg,Green_Plus_Stripes_3.jpg,left,676,true,NA,NA,NA,NA,NA,NA,NA,NA,true
P6xTpCr6,32204agabep2jqz0kncwzihmy16hgu,3yj6na41jft6atlj28a6uo7k1s6jp8,P6xTpCr6,2020-0188,2020-06-16,22:03:43,22:15:57,NA,incomplete,18,shape,0,1,left,Green_Triangle_Chess_2.jpg,Blue_Triangle_Grid_1.jpg,Green_Star_Stripes_3.jpg,left,591,true,NA,NA,NA,NA,NA,NA,NA,NA,true
P6xTpCr6,32204agabep2jqz0kncwzihmy16hgu,3yj6na41jft6atlj28a6uo7k1s6jp8,P6xTpCr6,2020-0188,2020-06-16,22:03:43,22:15:57,NA,incomplete,19,shape,0,0,left,Green_Circle_Chess_4.jpg,Purple_Circle_Stripes_1.jpg,Green_Star_Grid_2.jpg,left,788,true,NA,NA,NA,NA,NA,NA,NA,NA,true
P6xTpCr6,32204agabep2jqz0kncwzihmy16hgu,3yj6na41jft6atlj28a6uo7k1s6jp8,P6xTpCr6,2020-0188,2020-06-16,22:03:43,22:15:57,NA,incomplete,20,color,1,1,left,Red_Plus_Chess_2.jpg,Red_Triangle_Stripes_3.jpg,Green_Plus_Grid_4.jpg,right,677,false,NA,NA,NA,NA,NA,NA,NA,NA,true
P6xTpCr6,32204agabep2jqz0kncwzihmy16hgu,3yj6na41jft6atlj28a6uo7k1s6jp8,P6xTpCr6,2020-0188,2020-06-16,22:03:43,22:15:57,NA,incomplete,21,color,1,1,left,Blue_Triangle_Dots_1.jpg,Blue_Star_Chess_3.jpg,Red_Triangle_Stripes_4.jpg,right,554,false,NA,NA,NA,NA,NA,NA,NA,NA,true
P6xTpCr6,32204agabep2jqz0kncwzihmy16hgu,3yj6na41jft6atlj28a6uo7k1s6jp8,P6xTpCr6,2020-0188,2020-06-16,22:03:43,22:15:57,NA,incomplete,22,color,1,1,left,Red_Triangle_Grid_4.jpg,Red_Circle_Dots_3.jpg,Blue_Triangle_Chess_1.jpg,right,673,false,NA,NA,NA,NA,NA,NA,NA,NA,true
P6xTpCr6,32204agabep2jqz0kncwzihmy16hgu,3yj6na41jft6atlj28a6uo7k1s6jp8,P6xTpCr6,2020-0188,2020-06-16,22:03:43,22:15:57,NA,incomplete,23,color,1,1,left,Red_Plus_Chess_4.jpg,Red_Star_Stripes_3.jpg,Blue_Plus_Grid_2.jpg,left,1206,true,NA,NA,NA,NA,NA,NA,NA,NA,true
P6xTpCr6,32204agabep2jqz0kncwzihmy16hgu,3yj6na41jft6atlj28a6uo7k1s6jp8,P6xTpCr6,2020-0188,2020-06-16,22:03:43,22:15:57,NA,incomplete,24,color,1,1,left,Red_Circle_Stripes_1.jpg,Red_Plus_Dots_3.jpg,Blue_Circle_Chess_2.jpg,left,660,true,NA,NA,NA,NA,NA,NA,NA,NA,true
P6xTpCr6,32204agabep2jqz0kncwzihmy16hgu,3yj6na41jft6atlj28a6uo7k1s6jp8,P6xTpCr6,2020-0188,2020-06-16,22:03:43,22:15:57,NA,incomplete,25,color,1,0,right,Blue_Circle_Grid_3.jpg,Green_Circle_Stripes_1.jpg,Blue_Star_Chess_4.jpg,right,583,true,NA,NA,NA,NA,NA,NA,NA,NA,true
P6xTpCr6,32204agabep2jqz0kncwzihmy16hgu,3yj6na41jft6atlj28a6uo7k1s6jp8,P6xTpCr6,2020-0188,2020-06-16,22:03:43,22:15:57,NA,incomplete,26,color,1,1,right,Blue_Circle_Stripes_2.jpg,Green_Circle_Grid_4.jpg,Blue_Triangle_Dots_1.jpg,right,643,true,NA,NA,NA,NA,NA,NA,NA,NA,true
P6xTpCr6,32204agabep2jqz0kncwzihmy16hgu,3yj6na41jft6atlj28a6uo7k1s6jp8,P6xTpCr6,2020-0188,2020-06-16,22:03:43,22:15:57,NA,incomplete,27,color,1,0,left,Blue_Triangle_Chess_2.jpg,Blue_Plus_Stripes_1.jpg,Green_Triangle_Dots_4.jpg,left,504,true,NA,NA,NA,NA,NA,NA,NA,NA,true
P6xTpCr6,32204agabep2jqz0kncwzihmy16hgu,3yj6na41jft6atlj28a6uo7k1s6jp8,P6xTpCr6,2020-0188,2020-06-16,22:03:43,22:15:57,NA,incomplete,28,color,1,1,right,Blue_Triangle_Chess_4.jpg,Purple_Triangle_Dots_2.jpg,Blue_Circle_Stripes_3.jpg,right,552,true,NA,NA,NA,NA,NA,NA,NA,NA,true
P6xTpCr6,32204agabep2jqz0kncwzihmy16hgu,3yj6na41jft6atlj28a6uo7k1s6jp8,P6xTpCr6,2020-0188,2020-06-16,22:03:43,22:15:57,NA,incomplete,29,color,1,1,right,Red_Circle_Chess_3.jpg,Blue_Circle_Grid_2.jpg,Red_Plus_Stripes_1.jpg,right,748,true,NA,NA,NA,NA,NA,NA,NA,NA,true
P6xTpCr6,32204agabep2jqz0kncwzihmy16hgu,3yj6na41jft6atlj28a6uo7k1s6jp8,P6xTpCr6,2020-0188,2020-06-16,22:03:43,22:15:57,NA,incomplete,30,color,1,1,left,Red_Star_Grid_2.jpg,Red_Plus_Dots_1.jpg,Purple_Star_Chess_3.jpg,left,497,true,NA,NA,NA,NA,NA,NA,NA,NA,true
P6xTpCr6,32204agabep2jqz0kncwzihmy16hgu,3yj6na41jft6atlj28a6uo7k1s6jp8,P6xTpCr6,2020-0188,2020-06-16,22:03:43,22:15:57,NA,incomplete,31,color,1,1,left,Purple_Circle_Chess_4.jpg,Purple_Star_Stripes_3.jpg,Blue_Circle_Grid_2.jpg,left,808,true,NA,NA,NA,NA,NA,NA,NA,NA,true
P6xTpCr6,32204agabep2jqz0kncwzihmy16hgu,3yj6na41jft6atlj28a6uo7k1s6jp8,P6xTpCr6,2020-0188,2020-06-16,22:03:43,22:15:57,NA,incomplete,32,color,1,1,right,Blue_Triangle_Stripes_2.jpg,Purple_Triangle_Dots_3.jpg,Blue_Star_Grid_1.jpg,right,520,true,NA,NA,NA,NA,NA,NA,NA,NA,true
P6xTpCr6,32204agabep2jqz0kncwzihmy16hgu,3yj6na41jft6atlj28a6uo7k1s6jp8,P6xTpCr6,2020-0188,2020-06-16,22:03:43,22:15:57,NA,incomplete,33,color,1,1,right,Red_Triangle_Grid_4.jpg,Blue_Triangle_Chess_1.jpg,Red_Plus_Stripes_3.jpg,right,500,true,NA,NA,NA,NA,NA,NA,NA,NA,true
P6xTpCr6,32204agabep2jqz0kncwzihmy16hgu,3yj6na41jft6atlj28a6uo7k1s6jp8,P6xTpCr6,2020-0188,2020-06-16,22:03:43,22:15:57,NA,incomplete,34,color,1,1,left,Purple_Circle_Grid_3.jpg,Purple_Triangle_Stripes_4.jpg,Red_Circle_Chess_2.jpg,left,574,true,NA,NA,NA,NA,NA,NA,NA,NA,true
P6xTpCr6,32204agabep2jqz0kncwzihmy16hgu,3yj6na41jft6atlj28a6uo7k1s6jp8,P6xTpCr6,2020-0188,2020-06-16,22:03:43,22:15:57,NA,incomplete,35,color,1,1,left,Blue_Triangle_Chess_2.jpg,Blue_Star_Grid_1.jpg,Red_Triangle_Stripes_3.jpg,left,492,true,NA,NA,NA,NA,NA,NA,NA,NA,true
P6xTpCr6,32204agabep2jqz0kncwzihmy16hgu,3yj6na41jft6atlj28a6uo7k1s6jp8,P6xTpCr6,2020-0188,2020-06-16,22:03:43,22:15:57,NA,incomplete,36,color,1,1,left,Red_Circle_Chess_3.jpg,Red_Plus_Dots_2.jpg,Blue_Circle_Stripes_1.jpg,left,459,true,NA,NA,NA,NA,NA,NA,NA,NA,true
P6xTpCr6,32204agabep2jqz0kncwzihmy16hgu,3yj6na41jft6atlj28a6uo7k1s6jp8,P6xTpCr6,2020-0188,2020-06-16,22:03:43,22:15:57,NA,incomplete,37,color,1,0,right,Blue_Star_Chess_4.jpg,Green_Star_Stripes_3.jpg,Blue_Circle_Dots_2.jpg,right,515,true,NA,NA,NA,NA,NA,NA,NA,NA,true
P6xTpCr6,32204agabep2jqz0kncwzihmy16hgu,3yj6na41jft6atlj28a6uo7k1s6jp8,P6xTpCr6,2020-0188,2020-06-16,22:03:43,22:15:57,NA,incomplete,38,color,1,1,right,Purple_Star_Dots_2.jpg,Red_Star_Stripes_4.jpg,Purple_Circle_Chess_3.jpg,right,538,true,NA,NA,NA,NA,NA,NA,NA,NA,true
P6xTpCr6,32204agabep2jqz0kncwzihmy16hgu,3yj6na41jft6atlj28a6uo7k1s6jp8,P6xTpCr6,2020-0188,2020-06-16,22:03:43,22:15:57,NA,incomplete,39,color,1,1,right,Purple_Triangle_Chess_1.jpg,Blue_Triangle_Grid_2.jpg,Purple_Star_Stripes_4.jpg,right,450,true,NA,NA,NA,NA,NA,NA,NA,NA,true
P6xTpCr6,32204agabep2jqz0kncwzihmy16hgu,3yj6na41jft6atlj28a6uo7k1s6jp8,P6xTpCr6,2020-0188,2020-06-16,22:03:43,22:15:57,NA,incomplete,0,shape,0,0,left,Red_Triangle_Stripes_1.jpg,Green_Triangle_Grid_4.jpg,Red_Star_Chess_3.jpg,right,784,false,high,NA,NA,NA,NA,NA,NA,NA,false
P6xTpCr6,32204agabep2jqz0kncwzihmy16hgu,3yj6na41jft6atlj28a6uo7k1s6jp8,P6xTpCr6,2020-0188,2020-06-16,22:03:43,22:15:57,NA,incomplete,1,shape,0,1,right,Green_Circle_Stripes_1.jpg,Green_Triangle_Grid_2.jpg,Blue_Circle_Dots_3.jpg,left,523,false,high,NA,NA,NA,NA,NA,NA,NA,false
P6xTpCr6,32204agabep2jqz0kncwzihmy16hgu,3yj6na41jft6atlj28a6uo7k1s6jp8,P6xTpCr6,2020-0188,2020-06-16,22:03:43,22:15:57,NA,incomplete,2,shape,0,0,left,Red_Circle_Chess_4.jpg,Green_Circle_Dots_2.jpg,Red_Triangle_Stripes_1.jpg,right,620,false,high,NA,NA,NA,NA,NA,NA,NA,false
P6xTpCr6,32204agabep2jqz0kncwzihmy16hgu,3yj6na41jft6atlj28a6uo7k1s6jp8,P6xTpCr6,2020-0188,2020-06-16,22:03:43,22:15:57,NA,incomplete,3,shape,0,1,right,Purple_Triangle_Stripes_2.jpg,Purple_Circle_Dots_3.jpg,Blue_Triangle_Grid_1.jpg,left,606,false,high,NA,NA,NA,NA,NA,NA,NA,false
P6xTpCr6,32204agabep2jqz0kncwzihmy16hgu,3yj6na41jft6atlj28a6uo7k1s6jp8,P6xTpCr6,2020-0188,2020-06-16,22:03:43,22:15:57,NA,incomplete,4,shape,0,1,left,Purple_Star_Grid_2.jpg,Green_Star_Stripes_1.jpg,Purple_Triangle_Chess_3.jpg,right,512,false,high,NA,NA,NA,NA,NA,NA,NA,false
P6xTpCr6,32204agabep2jqz0kncwzihmy16hgu,3yj6na41jft6atlj28a6uo7k1s6jp8,P6xTpCr6,2020-0188,2020-06-16,22:03:43,22:15:57,NA,incomplete,5,shape,0,1,right,Purple_Star_Dots_4.jpg,Purple_Plus_Stripes_2.jpg,Green_Star_Grid_3.jpg,left,757,false,high,NA,NA,NA,NA,NA,NA,NA,false
P6xTpCr6,32204agabep2jqz0kncwzihmy16hgu,3yj6na41jft6atlj28a6uo7k1s6jp8,P6xTpCr6,2020-0188,2020-06-16,22:03:43,22:15:57,NA,incomplete,6,shape,0,1,left,Blue_Circle_Chess_4.jpg,Purple_Circle_Grid_1.jpg,Blue_Plus_Stripes_3.jpg,left,1048,true,high,NA,NA,NA,NA,NA,NA,NA,false
P6xTpCr6,32204agabep2jqz0kncwzihmy16hgu,3yj6na41jft6atlj28a6uo7k1s6jp8,P6xTpCr6,2020-0188,2020-06-16,22:03:43,22:15:57,NA,incomplete,7,shape,0,1,right,Blue_Star_Dots_2.jpg,Blue_Triangle_Stripes_3.jpg,Green_Star_Chess_1.jpg,right,893,true,high,NA,NA,NA,NA,NA,NA,NA,false
P6xTpCr6,32204agabep2jqz0kncwzihmy16hgu,3yj6na41jft6atlj28a6uo7k1s6jp8,P6xTpCr6,2020-0188,2020-06-16,22:03:43,22:15:57,NA,incomplete,8,shape,0,1,right,Green_Star_Stripes_4.jpg,Green_Plus_Chess_3.jpg,Red_Star_Grid_1.jpg,left,574,false,high,NA,NA,NA,NA,NA,NA,NA,false
P6xTpCr6,32204agabep2jqz0kncwzihmy16hgu,3yj6na41jft6atlj28a6uo7k1s6jp8,P6xTpCr6,2020-0188,2020-06-16,22:03:43,22:15:57,NA,incomplete,9,shape,0,1,left,Blue_Circle_Chess_2.jpg,Purple_Circle_Grid_4.jpg,Blue_Plus_Dots_1.jpg,left,616,true,high,NA,NA,NA,NA,NA,NA,NA,false
P6xTpCr6,32204agabep2jqz0kncwzihmy16hgu,3yj6na41jft6atlj28a6uo7k1s6jp8,P6xTpCr6,2020-0188,2020-06-16,22:03:43,22:15:57,NA,incomplete,10,color,1,1,left,Green_Triangle_Stripes_2.jpg,Green_Circle_Dots_1.jpg,Red_Triangle_Chess_3.jpg,right,702,false,high,NA,NA,NA,NA,NA,NA,NA,false
P6xTpCr6,32204agabep2jqz0kncwzihmy16hgu,3yj6na41jft6atlj28a6uo7k1s6jp8,P6xTpCr6,2020-0188,2020-06-16,22:03:43,22:15:57,NA,incomplete,11,color,1,1,left,Red_Plus_Dots_1.jpg,Red_Triangle_Chess_3.jpg,Purple_Plus_Grid_2.jpg,right,629,false,high,NA,NA,NA,NA,NA,NA,NA,false
P6xTpCr6,32204agabep2jqz0kncwzihmy16hgu,3yj6na41jft6atlj28a6uo7k1s6jp8,P6xTpCr6,2020-0188,2020-06-16,22:03:43,22:15:57,NA,incomplete,12,color,1,1,right,Blue_Triangle_Chess_1.jpg,Purple_Triangle_Grid_3.jpg,Blue_Circle_Dots_4.jpg,left,760,false,high,NA,NA,NA,NA,NA,NA,NA,false
P6xTpCr6,32204agabep2jqz0kncwzihmy16hgu,3yj6na41jft6atlj28a6uo7k1s6jp8,P6xTpCr6,2020-0188,2020-06-16,22:03:43,22:15:57,NA,incomplete,13,color,1,1,left,Blue_Circle_Dots_4.jpg,Blue_Star_Chess_1.jpg,Purple_Circle_Grid_3.jpg,right,776,false,high,NA,NA,NA,NA,NA,NA,NA,false
P6xTpCr6,32204agabep2jqz0kncwzihmy16hgu,3yj6na41jft6atlj28a6uo7k1s6jp8,P6xTpCr6,2020-0188,2020-06-16,22:03:43,22:15:57,NA,incomplete,14,color,1,1,right,Red_Triangle_Stripes_1.jpg,Green_Triangle_Dots_2.jpg,Red_Circle_Chess_3.jpg,left,734,false,high,NA,NA,NA,NA,NA,NA,NA,false
P6xTpCr6,32204agabep2jqz0kncwzihmy16hgu,3yj6na41jft6atlj28a6uo7k1s6jp8,P6xTpCr6,2020-0188,2020-06-16,22:03:43,22:15:57,NA,incomplete,15,color,1,0,left,Green_Triangle_Stripes_3.jpg,Green_Star_Dots_4.jpg,Purple_Triangle_Chess_2.jpg,left,571,true,high,NA,NA,NA,NA,NA,NA,NA,false
P6xTpCr6,32204agabep2jqz0kncwzihmy16hgu,3yj6na41jft6atlj28a6uo7k1s6jp8,P6xTpCr6,2020-0188,2020-06-16,22:03:43,22:15:57,NA,incomplete,16,color,1,1,left,Green_Circle_Stripes_1.jpg,Green_Triangle_Chess_3.jpg,Purple_Circle_Dots_2.jpg,left,523,true,high,NA,NA,NA,NA,NA,NA,NA,false
P6xTpCr6,32204agabep2jqz0kncwzihmy16hgu,3yj6na41jft6atlj28a6uo7k1s6jp8,P6xTpCr6,2020-0188,2020-06-16,22:03:43,22:15:57,NA,incomplete,17,color,1,1,left,Green_Triangle_Chess_1.jpg,Green_Star_Stripes_2.jpg,Red_Triangle_Dots_3.jpg,left,538,true,high,NA,NA,NA,NA,NA,NA,NA,false
P6xTpCr6,32204agabep2jqz0kncwzihmy16hgu,3yj6na41jft6atlj28a6uo7k1s6jp8,P6xTpCr6,2020-0188,2020-06-16,22:03:43,22:15:57,NA,incomplete,18,color,1,1,right,Purple_Circle_Dots_3.jpg,Blue_Circle_Chess_2.jpg,Purple_Star_Stripes_1.jpg,right,494,true,high,NA,NA,NA,NA,NA,NA,NA,false
P6xTpCr6,32204agabep2jqz0kncwzihmy16hgu,3yj6na41jft6atlj28a6uo7k1s6jp8,P6xTpCr6,2020-0188,2020-06-16,22:03:43,22:15:57,NA,incomplete,19,color,1,0,left,Green_Plus_Chess_1.jpg,Green_Circle_Dots_4.jpg,Blue_Plus_Stripes_3.jpg,left,463,true,high,NA,NA,NA,NA,NA,NA,NA,false
P6xTpCr6,32204agabep2jqz0kncwzihmy16hgu,3yj6na41jft6atlj28a6uo7k1s6jp8,P6xTpCr6,2020-0188,2020-06-16,22:03:43,22:15:57,NA,incomplete,20,shape,0,1,left,Red_Star_Grid_3.jpg,Green_Star_Stripes_4.jpg,Red_Circle_Chess_2.jpg,right,615,false,high,NA,NA,NA,NA,NA,NA,NA,false
P6xTpCr6,32204agabep2jqz0kncwzihmy16hgu,3yj6na41jft6atlj28a6uo7k1s6jp8,P6xTpCr6,2020-0188,2020-06-16,22:03:43,22:15:57,NA,incomplete,21,shape,0,1,left,Blue_Star_Grid_3.jpg,Purple_Star_Stripes_2.jpg,Blue_Circle_Dots_1.jpg,right,779,false,high,NA,NA,NA,NA,NA,NA,NA,false
P6xTpCr6,32204agabep2jqz0kncwzihmy16hgu,3yj6na41jft6atlj28a6uo7k1s6jp8,P6xTpCr6,2020-0188,2020-06-16,22:03:43,22:15:57,NA,incomplete,22,shape,0,0,left,Purple_Plus_Stripes_2.jpg,Blue_Plus_Grid_3.jpg,Purple_Triangle_Chess_1.jpg,left,871,true,high,NA,NA,NA,NA,NA,NA,NA,false
P6xTpCr6,32204agabep2jqz0kncwzihmy16hgu,3yj6na41jft6atlj28a6uo7k1s6jp8,P6xTpCr6,2020-0188,2020-06-16,22:03:43,22:15:57,NA,incomplete,23,shape,0,0,right,Blue_Circle_Dots_4.jpg,Blue_Plus_Grid_2.jpg,Purple_Circle_Chess_3.jpg,right,611,true,high,NA,NA,NA,NA,NA,NA,NA,false
P6xTpCr6,32204agabep2jqz0kncwzihmy16hgu,3yj6na41jft6atlj28a6uo7k1s6jp8,P6xTpCr6,2020-0188,2020-06-16,22:03:43,22:15:57,NA,incomplete,24,shape,0,0,right,Blue_Triangle_Stripes_3.jpg,Blue_Circle_Dots_1.jpg,Purple_Triangle_Grid_2.jpg,right,1030,true,high,NA,NA,NA,NA,NA,NA,NA,false
P6xTpCr6,32204agabep2jqz0kncwzihmy16hgu,3yj6na41jft6atlj28a6uo7k1s6jp8,P6xTpCr6,2020-0188,2020-06-16,22:03:43,22:15:57,NA,incomplete,25,shape,0,1,right,Purple_Star_Chess_1.jpg,Purple_Circle_Stripes_2.jpg,Red_Star_Grid_4.jpg,right,812,true,high,NA,NA,NA,NA,NA,NA,NA,false
P6xTpCr6,32204agabep2jqz0kncwzihmy16hgu,3yj6na41jft6atlj28a6uo7k1s6jp8,P6xTpCr6,2020-0188,2020-06-16,22:03:43,22:15:57,NA,incomplete,26,shape,0,0,left,Red_Star_Stripes_1.jpg,Purple_Star_Grid_4.jpg,Red_Plus_Chess_2.jpg,left,681,true,high,NA,NA,NA,NA,NA,NA,NA,false
P6xTpCr6,32204agabep2jqz0kncwzihmy16hgu,3yj6na41jft6atlj28a6uo7k1s6jp8,P6xTpCr6,2020-0188,2020-06-16,22:03:43,22:15:57,NA,incomplete,27,shape,0,1,right,Red_Plus_Dots_2.jpg,Red_Circle_Stripes_4.jpg,Purple_Plus_Chess_3.jpg,right,633,true,high,NA,NA,NA,NA,NA,NA,NA,false
P6xTpCr6,32204agabep2jqz0kncwzihmy16hgu,3yj6na41jft6atlj28a6uo7k1s6jp8,P6xTpCr6,2020-0188,2020-06-16,22:03:43,22:15:57,NA,incomplete,28,shape,0,1,left,Blue_Triangle_Grid_1.jpg,Red_Triangle_Dots_3.jpg,Blue_Star_Stripes_2.jpg,left,739,true,high,NA,NA,NA,NA,NA,NA,NA,false
P6xTpCr6,32204agabep2jqz0kncwzihmy16hgu,3yj6na41jft6atlj28a6uo7k1s6jp8,P6xTpCr6,2020-0188,2020-06-16,22:03:43,22:15:57,NA,incomplete,29,shape,0,1,right,Blue_Star_Grid_1.jpg,Blue_Plus_Stripes_4.jpg,Red_Star_Dots_2.jpg,right,674,true,high,NA,NA,NA,NA,NA,NA,NA,false
P6xTpCr6,32204agabep2jqz0kncwzihmy16hgu,3yj6na41jft6atlj28a6uo7k1s6jp8,P6xTpCr6,2020-0188,2020-06-16,22:03:43,22:15:57,NA,incomplete,30,color,1,0,right,Blue_Circle_Chess_3.jpg,Red_Circle_Dots_1.jpg,Blue_Triangle_Stripes_4.jpg,left,618,false,high,NA,NA,NA,NA,NA,NA,NA,false
P6xTpCr6,32204agabep2jqz0kncwzihmy16hgu,3yj6na41jft6atlj28a6uo7k1s6jp8,P6xTpCr6,2020-0188,2020-06-16,22:03:43,22:15:57,NA,incomplete,31,color,1,1,left,Blue_Triangle_Grid_2.jpg,Blue_Plus_Chess_3.jpg,Red_Triangle_Stripes_1.jpg,right,710,false,high,NA,NA,NA,NA,NA,NA,NA,false
P6xTpCr6,32204agabep2jqz0kncwzihmy16hgu,3yj6na41jft6atlj28a6uo7k1s6jp8,P6xTpCr6,2020-0188,2020-06-16,22:03:43,22:15:57,NA,incomplete,32,color,1,1,left,Blue_Star_Stripes_1.jpg,Blue_Plus_Grid_2.jpg,Purple_Star_Chess_4.jpg,right,793,false,high,NA,NA,NA,NA,NA,NA,NA,false
P6xTpCr6,32204agabep2jqz0kncwzihmy16hgu,3yj6na41jft6atlj28a6uo7k1s6jp8,P6xTpCr6,2020-0188,2020-06-16,22:03:43,22:15:57,NA,incomplete,33,color,1,1,right,Red_Plus_Grid_3.jpg,Green_Plus_Stripes_4.jpg,Red_Triangle_Dots_2.jpg,right,910,true,high,NA,NA,NA,NA,NA,NA,NA,false
P6xTpCr6,32204agabep2jqz0kncwzihmy16hgu,3yj6na41jft6atlj28a6uo7k1s6jp8,P6xTpCr6,2020-0188,2020-06-16,22:03:43,22:15:57,NA,incomplete,34,color,1,1,right,Green_Star_Chess_1.jpg,Red_Star_Dots_4.jpg,Green_Plus_Stripes_3.jpg,right,694,true,high,NA,NA,NA,NA,NA,NA,NA,false
P6xTpCr6,32204agabep2jqz0kncwzihmy16hgu,3yj6na41jft6atlj28a6uo7k1s6jp8,P6xTpCr6,2020-0188,2020-06-16,22:03:43,22:15:57,NA,incomplete,35,color,1,1,left,Purple_Plus_Stripes_3.jpg,Purple_Circle_Grid_4.jpg,Red_Plus_Chess_2.jpg,left,486,true,high,NA,NA,NA,NA,NA,NA,NA,false
P6xTpCr6,32204agabep2jqz0kncwzihmy16hgu,3yj6na41jft6atlj28a6uo7k1s6jp8,P6xTpCr6,2020-0188,2020-06-16,22:03:43,22:15:57,NA,incomplete,36,color,1,1,right,Blue_Star_Chess_4.jpg,Green_Star_Stripes_3.jpg,Blue_Plus_Dots_1.jpg,right,480,true,high,NA,NA,NA,NA,NA,NA,NA,false
P6xTpCr6,32204agabep2jqz0kncwzihmy16hgu,3yj6na41jft6atlj28a6uo7k1s6jp8,P6xTpCr6,2020-0188,2020-06-16,22:03:43,22:15:57,NA,incomplete,37,color,1,1,right,Blue_Plus_Grid_1.jpg,Green_Plus_Chess_2.jpg,Blue_Circle_Stripes_3.jpg,right,551,true,high,NA,NA,NA,NA,NA,NA,NA,false
P6xTpCr6,32204agabep2jqz0kncwzihmy16hgu,3yj6na41jft6atlj28a6uo7k1s6jp8,P6xTpCr6,2020-0188,2020-06-16,22:03:43,22:15:57,NA,incomplete,38,color,1,1,left,Green_Circle_Dots_2.jpg,Green_Star_Grid_4.jpg,Blue_Circle_Chess_1.jpg,left,583,true,high,NA,NA,NA,NA,NA,NA,NA,false
P6xTpCr6,32204agabep2jqz0kncwzihmy16hgu,3yj6na41jft6atlj28a6uo7k1s6jp8,P6xTpCr6,2020-0188,2020-06-16,22:03:43,22:15:57,NA,incomplete,39,color,1,1,left,Purple_Plus_Grid_4.jpg,Purple_Circle_Chess_3.jpg,Green_Plus_Stripes_1.jpg,left,624,true,high,NA,NA,NA,NA,NA,NA,NA,false
P6xTpCr6,32204agabep2jqz0kncwzihmy16hgu,3yj6na41jft6atlj28a6uo7k1s6jp8,P6xTpCr6,2020-0188,2020-06-16,22:03:43,22:15:57,NA,incomplete,40,shape,0,1,right,Red_Star_Stripes_3.jpg,Red_Plus_Grid_1.jpg,Green_Star_Dots_2.jpg,left,629,false,high,NA,NA,NA,NA,NA,NA,NA,false
P6xTpCr6,32204agabep2jqz0kncwzihmy16hgu,3yj6na41jft6atlj28a6uo7k1s6jp8,P6xTpCr6,2020-0188,2020-06-16,22:03:43,22:15:57,NA,incomplete,41,shape,0,1,left,Green_Circle_Chess_4.jpg,Blue_Circle_Dots_3.jpg,Green_Star_Grid_2.jpg,right,855,false,high,NA,NA,NA,NA,NA,NA,NA,false
P6xTpCr6,32204agabep2jqz0kncwzihmy16hgu,3yj6na41jft6atlj28a6uo7k1s6jp8,P6xTpCr6,2020-0188,2020-06-16,22:03:43,22:15:57,NA,incomplete,42,shape,0,1,right,Purple_Circle_Dots_2.jpg,Purple_Plus_Stripes_1.jpg,Red_Circle_Chess_3.jpg,right,794,true,high,NA,NA,NA,NA,NA,NA,NA,false
P6xTpCr6,32204agabep2jqz0kncwzihmy16hgu,3yj6na41jft6atlj28a6uo7k1s6jp8,P6xTpCr6,2020-0188,2020-06-16,22:03:43,22:15:57,NA,incomplete,43,shape,0,1,right,Blue_Star_Grid_1.jpg,Blue_Plus_Stripes_4.jpg,Red_Star_Dots_3.jpg,left,649,false,high,NA,NA,NA,NA,NA,NA,NA,false
P6xTpCr6,32204agabep2jqz0kncwzihmy16hgu,3yj6na41jft6atlj28a6uo7k1s6jp8,P6xTpCr6,2020-0188,2020-06-16,22:03:43,22:15:57,NA,incomplete,44,shape,0,0,left,Red_Plus_Grid_2.jpg,Purple_Plus_Dots_4.jpg,Red_Triangle_Chess_1.jpg,left,715,true,high,NA,NA,NA,NA,NA,NA,NA,false
P6xTpCr6,32204agabep2jqz0kncwzihmy16hgu,3yj6na41jft6atlj28a6uo7k1s6jp8,P6xTpCr6,2020-0188,2020-06-16,22:03:43,22:15:57,NA,incomplete,45,shape,0,1,right,Green_Plus_Chess_2.jpg,Green_Circle_Grid_1.jpg,Blue_Plus_Stripes_4.jpg,right,601,true,high,NA,NA,NA,NA,NA,NA,NA,false
P6xTpCr6,32204agabep2jqz0kncwzihmy16hgu,3yj6na41jft6atlj28a6uo7k1s6jp8,P6xTpCr6,2020-0188,2020-06-16,22:03:43,22:15:57,NA,incomplete,46,shape,0,1,right,Blue_Triangle_Dots_3.jpg,Blue_Plus_Chess_4.jpg,Red_Triangle_Grid_1.jpg,right,678,true,high,NA,NA,NA,NA,NA,NA,NA,false
P6xTpCr6,32204agabep2jqz0kncwzihmy16hgu,3yj6na41jft6atlj28a6uo7k1s6jp8,P6xTpCr6,2020-0188,2020-06-16,22:03:43,22:15:57,NA,incomplete,47,shape,0,1,right,Green_Circle_Dots_4.jpg,Green_Plus_Chess_3.jpg,Red_Circle_Stripes_2.jpg,right,768,true,high,NA,NA,NA,NA,NA,NA,NA,false
P6xTpCr6,32204agabep2jqz0kncwzihmy16hgu,3yj6na41jft6atlj28a6uo7k1s6jp8,P6xTpCr6,2020-0188,2020-06-16,22:03:43,22:15:57,NA,incomplete,48,shape,0,1,right,Purple_Circle_Dots_3.jpg,Purple_Plus_Stripes_4.jpg,Blue_Circle_Grid_1.jpg,right,514,true,high,NA,NA,NA,NA,NA,NA,NA,false
P6xTpCr6,32204agabep2jqz0kncwzihmy16hgu,3yj6na41jft6atlj28a6uo7k1s6jp8,P6xTpCr6,2020-0188,2020-06-16,22:03:43,22:15:57,NA,incomplete,49,shape,0,1,left,Blue_Plus_Stripes_4.jpg,Red_Plus_Grid_2.jpg,Blue_Star_Chess_1.jpg,left,645,true,high,NA,NA,NA,NA,NA,NA,NA,false
P6xTpCr6,32204agabep2jqz0kncwzihmy16hgu,3yj6na41jft6atlj28a6uo7k1s6jp8,P6xTpCr6,2020-0188,2020-06-16,22:03:43,22:15:57,NA,incomplete,50,color,1,1,left,Red_Star_Dots_2.jpg,Red_Circle_Grid_3.jpg,Green_Star_Stripes_1.jpg,right,568,false,high,NA,NA,NA,NA,NA,NA,NA,false
P6xTpCr6,32204agabep2jqz0kncwzihmy16hgu,3yj6na41jft6atlj28a6uo7k1s6jp8,P6xTpCr6,2020-0188,2020-06-16,22:03:43,22:15:57,NA,incomplete,51,color,1,1,right,Red_Triangle_Dots_4.jpg,Blue_Triangle_Chess_2.jpg,Red_Circle_Stripes_3.jpg,left,738,false,high,NA,NA,NA,NA,NA,NA,NA,false
P6xTpCr6,32204agabep2jqz0kncwzihmy16hgu,3yj6na41jft6atlj28a6uo7k1s6jp8,P6xTpCr6,2020-0188,2020-06-16,22:03:43,22:15:57,NA,incomplete,52,color,1,1,right,Red_Circle_Grid_3.jpg,Green_Circle_Stripes_2.jpg,Red_Star_Chess_1.jpg,right,675,true,high,NA,NA,NA,NA,NA,NA,NA,false
P6xTpCr6,32204agabep2jqz0kncwzihmy16hgu,3yj6na41jft6atlj28a6uo7k1s6jp8,P6xTpCr6,2020-0188,2020-06-16,22:03:43,22:15:57,NA,incomplete,53,color,1,1,left,Blue_Star_Stripes_4.jpg,Blue_Circle_Chess_2.jpg,Purple_Star_Dots_3.jpg,left,524,true,high,NA,NA,NA,NA,NA,NA,NA,false
P6xTpCr6,32204agabep2jqz0kncwzihmy16hgu,3yj6na41jft6atlj28a6uo7k1s6jp8,P6xTpCr6,2020-0188,2020-06-16,22:03:43,22:15:57,NA,incomplete,54,color,1,0,right,Blue_Plus_Dots_2.jpg,Green_Plus_Chess_1.jpg,Blue_Triangle_Stripes_4.jpg,right,522,true,high,NA,NA,NA,NA,NA,NA,NA,false
P6xTpCr6,32204agabep2jqz0kncwzihmy16hgu,3yj6na41jft6atlj28a6uo7k1s6jp8,P6xTpCr6,2020-0188,2020-06-16,22:03:43,22:15:57,NA,incomplete,55,color,1,1,left,Purple_Plus_Grid_1.jpg,Purple_Star_Stripes_4.jpg,Green_Plus_Chess_3.jpg,left,740,true,high,NA,NA,NA,NA,NA,NA,NA,false
P6xTpCr6,32204agabep2jqz0kncwzihmy16hgu,3yj6na41jft6atlj28a6uo7k1s6jp8,P6xTpCr6,2020-0188,2020-06-16,22:03:43,22:15:57,NA,incomplete,56,color,1,1,right,Blue_Circle_Grid_1.jpg,Green_Circle_Dots_4.jpg,Blue_Triangle_Chess_3.jpg,right,505,true,high,NA,NA,NA,NA,NA,NA,NA,false
P6xTpCr6,32204agabep2jqz0kncwzihmy16hgu,3yj6na41jft6atlj28a6uo7k1s6jp8,P6xTpCr6,2020-0188,2020-06-16,22:03:43,22:15:57,NA,incomplete,57,color,1,1,right,Blue_Circle_Stripes_1.jpg,Green_Circle_Grid_2.jpg,Blue_Triangle_Dots_3.jpg,right,450,true,high,NA,NA,NA,NA,NA,NA,NA,false
P6xTpCr6,32204agabep2jqz0kncwzihmy16hgu,3yj6na41jft6atlj28a6uo7k1s6jp8,P6xTpCr6,2020-0188,2020-06-16,22:03:43,22:15:57,NA,incomplete,58,color,1,1,right,Purple_Star_Chess_4.jpg,Blue_Star_Dots_3.jpg,Purple_Plus_Stripes_2.jpg,right,530,true,high,NA,NA,NA,NA,NA,NA,NA,false
P6xTpCr6,32204agabep2jqz0kncwzihmy16hgu,3yj6na41jft6atlj28a6uo7k1s6jp8,P6xTpCr6,2020-0188,2020-06-16,22:03:43,22:15:57,NA,incomplete,59,color,1,1,right,Blue_Circle_Dots_1.jpg,Red_Circle_Chess_4.jpg,Blue_Triangle_Grid_3.jpg,right,593,true,high,NA,NA,NA,NA,NA,NA,NA,false
P6xTpCr6,32204agabep2jqz0kncwzihmy16hgu,3yj6na41jft6atlj28a6uo7k1s6jp8,P6xTpCr6,2020-0188,2020-06-16,22:03:43,22:15:57,NA,incomplete,60,shape,0,1,right,Purple_Star_Grid_3.jpg,Purple_Circle_Stripes_4.jpg,Red_Star_Dots_1.jpg,left,541,false,high,NA,NA,NA,NA,NA,NA,NA,false
P6xTpCr6,32204agabep2jqz0kncwzihmy16hgu,3yj6na41jft6atlj28a6uo7k1s6jp8,P6xTpCr6,2020-0188,2020-06-16,22:03:43,22:15:57,NA,incomplete,61,shape,0,1,right,Red_Circle_Dots_3.jpg,Red_Triangle_Grid_2.jpg,Blue_Circle_Chess_1.jpg,left,546,false,high,NA,NA,NA,NA,NA,NA,NA,false
P6xTpCr6,32204agabep2jqz0kncwzihmy16hgu,3yj6na41jft6atlj28a6uo7k1s6jp8,P6xTpCr6,2020-0188,2020-06-16,22:03:43,22:15:57,NA,incomplete,62,shape,0,1,right,Green_Plus_Chess_4.jpg,Green_Circle_Dots_2.jpg,Red_Plus_Stripes_1.jpg,right,697,true,high,NA,NA,NA,NA,NA,NA,NA,false
P6xTpCr6,32204agabep2jqz0kncwzihmy16hgu,3yj6na41jft6atlj28a6uo7k1s6jp8,P6xTpCr6,2020-0188,2020-06-16,22:03:43,22:15:57,NA,incomplete,63,shape,0,1,right,Purple_Triangle_Dots_1.jpg,Purple_Circle_Stripes_3.jpg,Green_Triangle_Grid_2.jpg,right,673,true,high,NA,NA,NA,NA,NA,NA,NA,false
P6xTpCr6,32204agabep2jqz0kncwzihmy16hgu,3yj6na41jft6atlj28a6uo7k1s6jp8,P6xTpCr6,2020-0188,2020-06-16,22:03:43,22:15:57,NA,incomplete,64,shape,0,1,right,Red_Plus_Stripes_4.jpg,Red_Circle_Dots_3.jpg,Blue_Plus_Chess_1.jpg,right,708,true,high,NA,NA,NA,NA,NA,NA,NA,false
P6xTpCr6,32204agabep2jqz0kncwzihmy16hgu,3yj6na41jft6atlj28a6uo7k1s6jp8,P6xTpCr6,2020-0188,2020-06-16,22:03:43,22:15:57,NA,incomplete,65,shape,0,1,right,Blue_Circle_Grid_2.jpg,Blue_Plus_Chess_3.jpg,Green_Circle_Dots_4.jpg,right,637,true,high,NA,NA,NA,NA,NA,NA,NA,false
P6xTpCr6,32204agabep2jqz0kncwzihmy16hgu,3yj6na41jft6atlj28a6uo7k1s6jp8,P6xTpCr6,2020-0188,2020-06-16,22:03:43,22:15:57,NA,incomplete,66,shape,0,0,right,Green_Star_Stripes_1.jpg,Green_Circle_Grid_2.jpg,Purple_Star_Dots_3.jpg,right,638,true,high,NA,NA,NA,NA,NA,NA,NA,false
P6xTpCr6,32204agabep2jqz0kncwzihmy16hgu,3yj6na41jft6atlj28a6uo7k1s6jp8,P6xTpCr6,2020-0188,2020-06-16,22:03:43,22:15:57,NA,incomplete,67,shape,0,1,left,Blue_Star_Chess_2.jpg,Purple_Star_Stripes_4.jpg,Blue_Triangle_Dots_3.jpg,left,792,true,high,NA,NA,NA,NA,NA,NA,NA,false
P6xTpCr6,32204agabep2jqz0kncwzihmy16hgu,3yj6na41jft6atlj28a6uo7k1s6jp8,P6xTpCr6,2020-0188,2020-06-16,22:03:43,22:15:57,NA,incomplete,68,shape,0,1,right,Red_Triangle_Grid_3.jpg,Red_Star_Stripes_2.jpg,Blue_Triangle_Dots_1.jpg,right,759,true,high,NA,NA,NA,NA,NA,NA,NA,false
P6xTpCr6,32204agabep2jqz0kncwzihmy16hgu,3yj6na41jft6atlj28a6uo7k1s6jp8,P6xTpCr6,2020-0188,2020-06-16,22:03:43,22:15:57,NA,incomplete,69,shape,0,0,right,Purple_Plus_Grid_3.jpg,Purple_Circle_Chess_2.jpg,Green_Plus_Stripes_4.jpg,right,732,true,high,NA,NA,NA,NA,NA,NA,NA,false
P6xTpCr6,32204agabep2jqz0kncwzihmy16hgu,3yj6na41jft6atlj28a6uo7k1s6jp8,P6xTpCr6,2020-0188,2020-06-16,22:03:43,22:15:57,NA,incomplete,70,color,1,0,left,Purple_Star_Dots_4.jpg,Purple_Circle_Grid_1.jpg,Blue_Star_Chess_3.jpg,right,563,false,high,NA,NA,NA,NA,NA,NA,NA,false
P6xTpCr6,32204agabep2jqz0kncwzihmy16hgu,3yj6na41jft6atlj28a6uo7k1s6jp8,P6xTpCr6,2020-0188,2020-06-16,22:03:43,22:15:57,NA,incomplete,71,color,1,1,right,Blue_Triangle_Chess_2.jpg,Purple_Triangle_Dots_4.jpg,Blue_Plus_Grid_1.jpg,left,571,false,high,NA,NA,NA,NA,NA,NA,NA,false
P6xTpCr6,32204agabep2jqz0kncwzihmy16hgu,3yj6na41jft6atlj28a6uo7k1s6jp8,P6xTpCr6,2020-0188,2020-06-16,22:03:43,22:15:57,NA,incomplete,72,color,1,1,right,Blue_Triangle_Dots_1.jpg,Purple_Triangle_Grid_3.jpg,Blue_Star_Stripes_2.jpg,left,630,false,high,NA,NA,NA,NA,NA,NA,NA,false
P6xTpCr6,32204agabep2jqz0kncwzihmy16hgu,3yj6na41jft6atlj28a6uo7k1s6jp8,P6xTpCr6,2020-0188,2020-06-16,22:03:43,22:15:57,NA,incomplete,73,color,1,1,right,Purple_Star_Stripes_4.jpg,Red_Star_Grid_1.jpg,Purple_Circle_Chess_2.jpg,right,617,true,high,NA,NA,NA,NA,NA,NA,NA,false
P6xTpCr6,32204agabep2jqz0kncwzihmy16hgu,3yj6na41jft6atlj28a6uo7k1s6jp8,P6xTpCr6,2020-0188,2020-06-16,22:03:43,22:15:57,NA,incomplete,74,color,1,1,left,Purple_Star_Stripes_3.jpg,Purple_Triangle_Grid_1.jpg,Green_Star_Chess_4.jpg,left,500,true,high,NA,NA,NA,NA,NA,NA,NA,false
P6xTpCr6,32204agabep2jqz0kncwzihmy16hgu,3yj6na41jft6atlj28a6uo7k1s6jp8,P6xTpCr6,2020-0188,2020-06-16,22:03:43,22:15:57,NA,incomplete,75,color,1,1,left,Purple_Plus_Dots_3.jpg,Purple_Triangle_Chess_1.jpg,Blue_Plus_Grid_4.jpg,left,590,true,high,NA,NA,NA,NA,NA,NA,NA,false
P6xTpCr6,32204agabep2jqz0kncwzihmy16hgu,3yj6na41jft6atlj28a6uo7k1s6jp8,P6xTpCr6,2020-0188,2020-06-16,22:03:43,22:15:57,NA,incomplete,76,color,1,1,left,Green_Circle_Stripes_4.jpg,Green_Plus_Chess_3.jpg,Purple_Circle_Dots_2.jpg,left,547,true,high,NA,NA,NA,NA,NA,NA,NA,false
P6xTpCr6,32204agabep2jqz0kncwzihmy16hgu,3yj6na41jft6atlj28a6uo7k1s6jp8,P6xTpCr6,2020-0188,2020-06-16,22:03:43,22:15:57,NA,incomplete,77,color,1,1,right,Green_Star_Stripes_4.jpg,Red_Star_Dots_2.jpg,Green_Circle_Grid_3.jpg,right,453,true,high,NA,NA,NA,NA,NA,NA,NA,false
P6xTpCr6,32204agabep2jqz0kncwzihmy16hgu,3yj6na41jft6atlj28a6uo7k1s6jp8,P6xTpCr6,2020-0188,2020-06-16,22:03:43,22:15:57,NA,incomplete,78,color,1,1,left,Red_Circle_Grid_1.jpg,Red_Star_Dots_4.jpg,Blue_Circle_Stripes_3.jpg,left,416,true,high,NA,NA,NA,NA,NA,NA,NA,false
P6xTpCr6,32204agabep2jqz0kncwzihmy16hgu,3yj6na41jft6atlj28a6uo7k1s6jp8,P6xTpCr6,2020-0188,2020-06-16,22:03:43,22:15:57,NA,incomplete,79,color,1,1,left,Purple_Star_Grid_3.jpg,Purple_Plus_Stripes_2.jpg,Green_Star_Chess_4.jpg,left,484,true,high,NA,NA,NA,NA,NA,NA,NA,false
P6xTpCr6,32204agabep2jqz0kncwzihmy16hgu,3yj6na41jft6atlj28a6uo7k1s6jp8,P6xTpCr6,2020-0188,2020-06-16,22:03:43,22:15:57,NA,incomplete,80,shape,0,0,left,Purple_Plus_Dots_1.jpg,Blue_Plus_Chess_3.jpg,Purple_Triangle_Grid_2.jpg,left,475,true,high,NA,NA,NA,NA,NA,NA,NA,false
P6xTpCr6,32204agabep2jqz0kncwzihmy16hgu,3yj6na41jft6atlj28a6uo7k1s6jp8,P6xTpCr6,2020-0188,2020-06-16,22:03:43,22:15:57,NA,incomplete,81,shape,0,0,right,Blue_Circle_Chess_2.jpg,Blue_Plus_Dots_3.jpg,Purple_Circle_Stripes_4.jpg,left,523,false,high,NA,NA,NA,NA,NA,NA,NA,false
P6xTpCr6,32204agabep2jqz0kncwzihmy16hgu,3yj6na41jft6atlj28a6uo7k1s6jp8,P6xTpCr6,2020-0188,2020-06-16,22:03:43,22:15:57,NA,incomplete,82,shape,0,1,right,Green_Plus_Stripes_3.jpg,Green_Triangle_Dots_1.jpg,Blue_Plus_Grid_2.jpg,left,826,false,high,NA,NA,NA,NA,NA,NA,NA,false
P6xTpCr6,32204agabep2jqz0kncwzihmy16hgu,3yj6na41jft6atlj28a6uo7k1s6jp8,P6xTpCr6,2020-0188,2020-06-16,22:03:43,22:15:57,NA,incomplete,83,shape,0,1,left,Green_Triangle_Chess_1.jpg,Red_Triangle_Stripes_4.jpg,Green_Circle_Grid_3.jpg,right,527,false,high,NA,NA,NA,NA,NA,NA,NA,false
P6xTpCr6,32204agabep2jqz0kncwzihmy16hgu,3yj6na41jft6atlj28a6uo7k1s6jp8,P6xTpCr6,2020-0188,2020-06-16,22:03:43,22:15:57,NA,incomplete,84,shape,0,1,left,Blue_Star_Grid_4.jpg,Purple_Star_Chess_1.jpg,Blue_Circle_Dots_3.jpg,right,509,false,high,NA,NA,NA,NA,NA,NA,NA,false
P6xTpCr6,32204agabep2jqz0kncwzihmy16hgu,3yj6na41jft6atlj28a6uo7k1s6jp8,P6xTpCr6,2020-0188,2020-06-16,22:03:43,22:15:57,NA,incomplete,85,shape,0,1,right,Blue_Triangle_Dots_2.jpg,Blue_Plus_Stripes_3.jpg,Green_Triangle_Grid_4.jpg,right,701,true,high,NA,NA,NA,NA,NA,NA,NA,false
P6xTpCr6,32204agabep2jqz0kncwzihmy16hgu,3yj6na41jft6atlj28a6uo7k1s6jp8,P6xTpCr6,2020-0188,2020-06-16,22:03:43,22:15:57,NA,incomplete,86,shape,0,1,right,Red_Circle_Chess_4.jpg,Red_Triangle_Grid_2.jpg,Blue_Circle_Dots_1.jpg,left,501,false,high,NA,NA,NA,NA,NA,NA,NA,false
P6xTpCr6,32204agabep2jqz0kncwzihmy16hgu,3yj6na41jft6atlj28a6uo7k1s6jp8,P6xTpCr6,2020-0188,2020-06-16,22:03:43,22:15:57,NA,incomplete,87,shape,0,1,right,Blue_Plus_Chess_3.jpg,Blue_Star_Stripes_2.jpg,Red_Plus_Dots_1.jpg,right,668,true,high,NA,NA,NA,NA,NA,NA,NA,false
P6xTpCr6,32204agabep2jqz0kncwzihmy16hgu,3yj6na41jft6atlj28a6uo7k1s6jp8,P6xTpCr6,2020-0188,2020-06-16,22:03:43,22:15:57,NA,incomplete,88,shape,0,1,right,Green_Plus_Dots_1.jpg,Green_Circle_Chess_4.jpg,Blue_Plus_Stripes_3.jpg,right,606,true,high,NA,NA,NA,NA,NA,NA,NA,false
P6xTpCr6,32204agabep2jqz0kncwzihmy16hgu,3yj6na41jft6atlj28a6uo7k1s6jp8,P6xTpCr6,2020-0188,2020-06-16,22:03:43,22:15:57,NA,incomplete,89,shape,0,1,left,Green_Star_Chess_1.jpg,Red_Star_Stripes_4.jpg,Green_Circle_Grid_3.jpg,left,649,true,high,NA,NA,NA,NA,NA,NA,NA,false
P6xTpCr6,32204agabep2jqz0kncwzihmy16hgu,3yj6na41jft6atlj28a6uo7k1s6jp8,P6xTpCr6,2020-0188,2020-06-16,22:03:43,22:15:57,NA,incomplete,90,color,1,1,right,Green_Circle_Grid_3.jpg,Purple_Circle_Stripes_1.jpg,Green_Star_Dots_4.jpg,left,692,false,high,NA,NA,NA,NA,NA,NA,NA,false
P6xTpCr6,32204agabep2jqz0kncwzihmy16hgu,3yj6na41jft6atlj28a6uo7k1s6jp8,P6xTpCr6,2020-0188,2020-06-16,22:03:43,22:15:57,NA,incomplete,91,color,1,1,right,Purple_Triangle_Stripes_3.jpg,Red_Triangle_Dots_2.jpg,Purple_Plus_Chess_1.jpg,left,708,false,high,NA,NA,NA,NA,NA,NA,NA,false
P6xTpCr6,32204agabep2jqz0kncwzihmy16hgu,3yj6na41jft6atlj28a6uo7k1s6jp8,P6xTpCr6,2020-0188,2020-06-16,22:03:43,22:15:57,NA,incomplete,92,color,1,0,right,Red_Circle_Stripes_2.jpg,Blue_Circle_Chess_3.jpg,Red_Star_Dots_4.jpg,right,670,true,high,NA,NA,NA,NA,NA,NA,NA,false
P6xTpCr6,32204agabep2jqz0kncwzihmy16hgu,3yj6na41jft6atlj28a6uo7k1s6jp8,P6xTpCr6,2020-0188,2020-06-16,22:03:43,22:15:57,NA,incomplete,93,color,1,1,left,Purple_Circle_Stripes_4.jpg,Purple_Star_Dots_2.jpg,Green_Circle_Grid_3.jpg,left,509,true,high,NA,NA,NA,NA,NA,NA,NA,false
P6xTpCr6,32204agabep2jqz0kncwzihmy16hgu,3yj6na41jft6atlj28a6uo7k1s6jp8,P6xTpCr6,2020-0188,2020-06-16,22:03:43,22:15:57,NA,incomplete,94,color,1,0,left,Purple_Star_Chess_2.jpg,Purple_Plus_Stripes_1.jpg,Red_Star_Dots_3.jpg,left,518,true,high,NA,NA,NA,NA,NA,NA,NA,false
P6xTpCr6,32204agabep2jqz0kncwzihmy16hgu,3yj6na41jft6atlj28a6uo7k1s6jp8,P6xTpCr6,2020-0188,2020-06-16,22:03:43,22:15:57,NA,incomplete,95,color,1,1,left,Green_Triangle_Stripes_2.jpg,Green_Plus_Dots_4.jpg,Purple_Triangle_Grid_3.jpg,left,612,true,high,NA,NA,NA,NA,NA,NA,NA,false
P6xTpCr6,32204agabep2jqz0kncwzihmy16hgu,3yj6na41jft6atlj28a6uo7k1s6jp8,P6xTpCr6,2020-0188,2020-06-16,22:03:43,22:15:57,NA,incomplete,96,color,1,0,right,Purple_Circle_Dots_4.jpg,Red_Circle_Grid_2.jpg,Purple_Triangle_Stripes_3.jpg,right,552,true,high,NA,NA,NA,NA,NA,NA,NA,false
P6xTpCr6,32204agabep2jqz0kncwzihmy16hgu,3yj6na41jft6atlj28a6uo7k1s6jp8,P6xTpCr6,2020-0188,2020-06-16,22:03:43,22:15:57,NA,incomplete,97,color,1,0,right,Red_Star_Stripes_3.jpg,Purple_Star_Chess_2.jpg,Red_Plus_Dots_4.jpg,right,658,true,high,NA,NA,NA,NA,NA,NA,NA,false
P6xTpCr6,32204agabep2jqz0kncwzihmy16hgu,3yj6na41jft6atlj28a6uo7k1s6jp8,P6xTpCr6,2020-0188,2020-06-16,22:03:43,22:15:57,NA,incomplete,98,color,1,1,left,Blue_Star_Dots_3.jpg,Blue_Circle_Grid_1.jpg,Red_Star_Chess_2.jpg,right,664,false,high,NA,NA,NA,NA,NA,NA,NA,false
P6xTpCr6,32204agabep2jqz0kncwzihmy16hgu,3yj6na41jft6atlj28a6uo7k1s6jp8,P6xTpCr6,2020-0188,2020-06-16,22:03:43,22:15:57,NA,incomplete,99,color,1,1,right,Blue_Star_Grid_3.jpg,Purple_Star_Chess_2.jpg,Blue_Circle_Stripes_4.jpg,left,681,false,high,NA,NA,NA,NA,NA,NA,NA,false
P6xTpCr6,32204agabep2jqz0kncwzihmy16hgu,3yj6na41jft6atlj28a6uo7k1s6jp8,P6xTpCr6,2020-0188,2020-06-16,22:03:43,22:15:57,NA,incomplete,100,shape,0,1,right,Blue_Star_Dots_3.jpg,Blue_Circle_Chess_1.jpg,Purple_Star_Stripes_4.jpg,left,745,false,high,NA,NA,NA,NA,NA,NA,NA,false
P6xTpCr6,32204agabep2jqz0kncwzihmy16hgu,3yj6na41jft6atlj28a6uo7k1s6jp8,P6xTpCr6,2020-0188,2020-06-16,22:03:43,22:15:57,NA,incomplete,101,shape,0,0,right,Green_Plus_Stripes_4.jpg,Green_Triangle_Dots_2.jpg,Red_Plus_Chess_1.jpg,left,753,false,high,NA,NA,NA,NA,NA,NA,NA,false
P6xTpCr6,32204agabep2jqz0kncwzihmy16hgu,3yj6na41jft6atlj28a6uo7k1s6jp8,P6xTpCr6,2020-0188,2020-06-16,22:03:43,22:15:57,NA,incomplete,102,shape,0,1,right,Green_Circle_Dots_1.jpg,Green_Star_Grid_3.jpg,Blue_Circle_Stripes_4.jpg,left,571,false,high,NA,NA,NA,NA,NA,NA,NA,false
P6xTpCr6,32204agabep2jqz0kncwzihmy16hgu,3yj6na41jft6atlj28a6uo7k1s6jp8,P6xTpCr6,2020-0188,2020-06-16,22:03:43,22:15:57,NA,incomplete,103,shape,0,1,right,Green_Star_Grid_3.jpg,Green_Triangle_Chess_1.jpg,Purple_Star_Dots_4.jpg,left,491,false,high,NA,NA,NA,NA,NA,NA,NA,false
P6xTpCr6,32204agabep2jqz0kncwzihmy16hgu,3yj6na41jft6atlj28a6uo7k1s6jp8,P6xTpCr6,2020-0188,2020-06-16,22:03:43,22:15:57,NA,incomplete,104,shape,0,1,left,Purple_Star_Dots_3.jpg,Red_Star_Chess_4.jpg,Purple_Plus_Grid_1.jpg,left,709,true,high,NA,NA,NA,NA,NA,NA,NA,false
P6xTpCr6,32204agabep2jqz0kncwzihmy16hgu,3yj6na41jft6atlj28a6uo7k1s6jp8,P6xTpCr6,2020-0188,2020-06-16,22:03:43,22:15:57,NA,incomplete,105,shape,0,1,right,Blue_Star_Dots_3.jpg,Blue_Triangle_Grid_2.jpg,Purple_Star_Stripes_4.jpg,right,589,true,high,NA,NA,NA,NA,NA,NA,NA,false
P6xTpCr6,32204agabep2jqz0kncwzihmy16hgu,3yj6na41jft6atlj28a6uo7k1s6jp8,P6xTpCr6,2020-0188,2020-06-16,22:03:43,22:15:57,NA,incomplete,106,shape,0,1,right,Red_Circle_Stripes_3.jpg,Red_Star_Dots_2.jpg,Green_Circle_Chess_4.jpg,right,681,true,high,NA,NA,NA,NA,NA,NA,NA,false
P6xTpCr6,32204agabep2jqz0kncwzihmy16hgu,3yj6na41jft6atlj28a6uo7k1s6jp8,P6xTpCr6,2020-0188,2020-06-16,22:03:43,22:15:57,NA,incomplete,107,shape,0,0,right,Blue_Triangle_Stripes_3.jpg,Blue_Star_Chess_2.jpg,Green_Triangle_Grid_4.jpg,right,676,true,high,NA,NA,NA,NA,NA,NA,NA,false
P6xTpCr6,32204agabep2jqz0kncwzihmy16hgu,3yj6na41jft6atlj28a6uo7k1s6jp8,P6xTpCr6,2020-0188,2020-06-16,22:03:43,22:15:57,NA,incomplete,108,shape,0,0,right,Red_Triangle_Chess_2.jpg,Red_Circle_Stripes_1.jpg,Purple_Triangle_Dots_4.jpg,right,747,true,high,NA,NA,NA,NA,NA,NA,NA,false
P6xTpCr6,32204agabep2jqz0kncwzihmy16hgu,3yj6na41jft6atlj28a6uo7k1s6jp8,P6xTpCr6,2020-0188,2020-06-16,22:03:43,22:15:57,NA,incomplete,109,shape,0,1,right,Red_Star_Stripes_4.jpg,Red_Triangle_Chess_1.jpg,Purple_Star_Dots_3.jpg,right,577,true,high,NA,NA,NA,NA,NA,NA,NA,false
P6xTpCr6,32204agabep2jqz0kncwzihmy16hgu,3yj6na41jft6atlj28a6uo7k1s6jp8,P6xTpCr6,2020-0188,2020-06-16,22:03:43,22:15:57,NA,incomplete,110,color,1,1,right,Red_Triangle_Chess_1.jpg,Purple_Triangle_Stripes_2.jpg,Red_Star_Grid_4.jpg,left,632,false,high,NA,NA,NA,NA,NA,NA,NA,false
P6xTpCr6,32204agabep2jqz0kncwzihmy16hgu,3yj6na41jft6atlj28a6uo7k1s6jp8,P6xTpCr6,2020-0188,2020-06-16,22:03:43,22:15:57,NA,incomplete,111,color,1,1,right,Blue_Plus_Stripes_1.jpg,Green_Plus_Dots_4.jpg,Blue_Triangle_Grid_2.jpg,left,683,false,high,NA,NA,NA,NA,NA,NA,NA,false
P6xTpCr6,32204agabep2jqz0kncwzihmy16hgu,3yj6na41jft6atlj28a6uo7k1s6jp8,P6xTpCr6,2020-0188,2020-06-16,22:03:43,22:15:57,NA,incomplete,112,color,1,0,left,Blue_Star_Stripes_4.jpg,Blue_Circle_Grid_3.jpg,Red_Star_Chess_1.jpg,left,811,true,high,NA,NA,NA,NA,NA,NA,NA,false
P6xTpCr6,32204agabep2jqz0kncwzihmy16hgu,3yj6na41jft6atlj28a6uo7k1s6jp8,P6xTpCr6,2020-0188,2020-06-16,22:03:43,22:15:57,NA,incomplete,113,color,1,1,right,Purple_Triangle_Dots_1.jpg,Green_Triangle_Chess_3.jpg,Purple_Plus_Stripes_2.jpg,left,656,false,high,NA,NA,NA,NA,NA,NA,NA,false
P6xTpCr6,32204agabep2jqz0kncwzihmy16hgu,3yj6na41jft6atlj28a6uo7k1s6jp8,P6xTpCr6,2020-0188,2020-06-16,22:03:43,22:15:57,NA,incomplete,114,color,1,1,right,Purple_Plus_Dots_1.jpg,Green_Plus_Chess_4.jpg,Purple_Star_Stripes_3.jpg,left,713,false,high,NA,NA,NA,NA,NA,NA,NA,false
P6xTpCr6,32204agabep2jqz0kncwzihmy16hgu,3yj6na41jft6atlj28a6uo7k1s6jp8,P6xTpCr6,2020-0188,2020-06-16,22:03:43,22:15:57,NA,incomplete,115,color,1,1,right,Purple_Star_Dots_1.jpg,Green_Star_Stripes_4.jpg,Purple_Triangle_Chess_2.jpg,left,744,false,high,NA,NA,NA,NA,NA,NA,NA,false
P6xTpCr6,32204agabep2jqz0kncwzihmy16hgu,3yj6na41jft6atlj28a6uo7k1s6jp8,P6xTpCr6,2020-0188,2020-06-16,22:03:43,22:15:57,NA,incomplete,116,color,1,1,left,Red_Triangle_Dots_4.jpg,Red_Circle_Grid_2.jpg,Purple_Triangle_Stripes_3.jpg,right,642,false,high,NA,NA,NA,NA,NA,NA,NA,false
P6xTpCr6,32204agabep2jqz0kncwzihmy16hgu,3yj6na41jft6atlj28a6uo7k1s6jp8,P6xTpCr6,2020-0188,2020-06-16,22:03:43,22:15:57,NA,incomplete,117,color,1,1,left,Red_Circle_Stripes_1.jpg,Red_Star_Dots_3.jpg,Blue_Circle_Chess_2.jpg,right,787,false,high,NA,NA,NA,NA,NA,NA,NA,false
P6xTpCr6,32204agabep2jqz0kncwzihmy16hgu,3yj6na41jft6atlj28a6uo7k1s6jp8,P6xTpCr6,2020-0188,2020-06-16,22:03:43,22:15:57,NA,incomplete,118,color,1,1,left,Red_Circle_Chess_2.jpg,Red_Plus_Dots_1.jpg,Purple_Circle_Grid_4.jpg,right,655,false,high,NA,NA,NA,NA,NA,NA,NA,false
P6xTpCr6,32204agabep2jqz0kncwzihmy16hgu,3yj6na41jft6atlj28a6uo7k1s6jp8,P6xTpCr6,2020-0188,2020-06-16,22:03:43,22:15:57,NA,incomplete,119,color,1,1,right,Purple_Plus_Dots_3.jpg,Blue_Plus_Chess_2.jpg,Purple_Circle_Grid_4.jpg,right,542,true,high,NA,NA,NA,NA,NA,NA,NA,false
P6xTpCr6,32204agabep2jqz0kncwzihmy16hgu,3yj6na41jft6atlj28a6uo7k1s6jp8,P6xTpCr6,2020-0188,2020-06-16,22:03:43,22:15:57,NA,incomplete,120,gender,2,1,right,A_M_16.jpg,A_F_05.jpg,C_M_07.jpg,NA,NA,NA,high,NA,NA,NA,NA,NA,NA,NA,false
P6xTpCr6,32204agabep2jqz0kncwzihmy16hgu,3yj6na41jft6atlj28a6uo7k1s6jp8,P6xTpCr6,2020-0188,2020-06-16,22:03:43,22:15:57,NA,incomplete,121,gender,2,1,right,A_F_11.jpg,A_M_03.jpg,C_F_14.jpg,right,756,true,high,NA,NA,NA,NA,NA,NA,NA,false
P6xTpCr6,32204agabep2jqz0kncwzihmy16hgu,3yj6na41jft6atlj28a6uo7k1s6jp8,P6xTpCr6,2020-0188,2020-06-16,22:03:43,22:15:57,NA,incomplete,122,gender,2,1,left,C_M_02.jpg,A_M_01.jpg,C_F_11.jpg,left,1207,true,high,NA,NA,NA,NA,NA,NA,NA,false
P6xTpCr6,32204agabep2jqz0kncwzihmy16hgu,3yj6na41jft6atlj28a6uo7k1s6jp8,P6xTpCr6,2020-0188,2020-06-16,22:03:43,22:15:57,NA,incomplete,123,gender,2,1,right,A_F_02.jpg,A_M_01.jpg,C_F_04.jpg,right,646,true,high,NA,NA,NA,NA,NA,NA,NA,false
P6xTpCr6,32204agabep2jqz0kncwzihmy16hgu,3yj6na41jft6atlj28a6uo7k1s6jp8,P6xTpCr6,2020-0188,2020-06-16,22:03:43,22:15:57,NA,incomplete,124,gender,2,1,left,A_M_10.jpg,C_M_14.jpg,A_F_03.jpg,left,706,true,high,NA,NA,NA,NA,NA,NA,NA,false
P6xTpCr6,32204agabep2jqz0kncwzihmy16hgu,3yj6na41jft6atlj28a6uo7k1s6jp8,P6xTpCr6,2020-0188,2020-06-16,22:03:43,22:15:57,NA,incomplete,125,gender,2,1,right,C_M_09.jpg,C_F_04.jpg,A_M_03.jpg,right,688,true,high,NA,NA,NA,NA,NA,NA,NA,false
P6xTpCr6,32204agabep2jqz0kncwzihmy16hgu,3yj6na41jft6atlj28a6uo7k1s6jp8,P6xTpCr6,2020-0188,2020-06-16,22:03:43,22:15:57,NA,incomplete,126,gender,2,1,right,A_M_03.jpg,A_F_02.jpg,C_M_16.jpg,right,689,true,high,NA,NA,NA,NA,NA,NA,NA,false
P6xTpCr6,32204agabep2jqz0kncwzihmy16hgu,3yj6na41jft6atlj28a6uo7k1s6jp8,P6xTpCr6,2020-0188,2020-06-16,22:03:43,22:15:57,NA,incomplete,127,gender,2,1,right,A_F_01.jpg,A_M_14.jpg,C_F_15.jpg,right,683,true,high,NA,NA,NA,NA,NA,NA,NA,false
P6xTpCr6,32204agabep2jqz0kncwzihmy16hgu,3yj6na41jft6atlj28a6uo7k1s6jp8,P6xTpCr6,2020-0188,2020-06-16,22:03:43,22:15:57,NA,incomplete,128,gender,2,1,left,C_M_09.jpg,A_M_04.jpg,C_F_07.jpg,left,625,true,high,NA,NA,NA,NA,NA,NA,NA,false
P6xTpCr6,32204agabep2jqz0kncwzihmy16hgu,3yj6na41jft6atlj28a6uo7k1s6jp8,P6xTpCr6,2020-0188,2020-06-16,22:03:43,22:15:57,NA,incomplete,129,gender,2,1,left,C_M_06.jpg,A_M_02.jpg,C_F_05.jpg,left,792,true,high,NA,NA,NA,NA,NA,NA,NA,false
P6xTpCr6,32204agabep2jqz0kncwzihmy16hgu,3yj6na41jft6atlj28a6uo7k1s6jp8,P6xTpCr6,2020-0188,2020-06-16,22:03:43,22:15:57,NA,incomplete,130,gender,2,1,right,C_M_10.jpg,C_F_08.jpg,A_M_05.jpg,right,580,true,high,NA,NA,NA,NA,NA,NA,NA,false
P6xTpCr6,32204agabep2jqz0kncwzihmy16hgu,3yj6na41jft6atlj28a6uo7k1s6jp8,P6xTpCr6,2020-0188,2020-06-16,22:03:43,22:15:57,NA,incomplete,131,gender,2,1,right,A_M_02.jpg,A_F_07.jpg,C_M_01.jpg,left,737,false,high,NA,NA,NA,NA,NA,NA,NA,false
P6xTpCr6,32204agabep2jqz0kncwzihmy16hgu,3yj6na41jft6atlj28a6uo7k1s6jp8,P6xTpCr6,2020-0188,2020-06-16,22:03:43,22:15:57,NA,incomplete,132,gender,2,0,left,C_F_12.jpg,A_F_06.jpg,C_M_02.jpg,left,786,true,high,NA,NA,NA,NA,NA,NA,NA,false
P6xTpCr6,32204agabep2jqz0kncwzihmy16hgu,3yj6na41jft6atlj28a6uo7k1s6jp8,P6xTpCr6,2020-0188,2020-06-16,22:03:43,22:15:57,NA,incomplete,133,gender,2,1,right,C_F_02.jpg,C_M_09.jpg,A_F_06.jpg,right,771,true,high,NA,NA,NA,NA,NA,NA,NA,false
P6xTpCr6,32204agabep2jqz0kncwzihmy16hgu,3yj6na41jft6atlj28a6uo7k1s6jp8,P6xTpCr6,2020-0188,2020-06-16,22:03:43,22:15:57,NA,incomplete,134,gender,2,1,left,C_F_08.jpg,A_F_13.jpg,C_M_01.jpg,left,785,true,high,NA,NA,NA,NA,NA,NA,NA,false
P6xTpCr6,32204agabep2jqz0kncwzihmy16hgu,3yj6na41jft6atlj28a6uo7k1s6jp8,P6xTpCr6,2020-0188,2020-06-16,22:03:43,22:15:57,NA,incomplete,135,gender,2,1,left,C_F_15.jpg,A_F_02.jpg,C_M_10.jpg,left,630,true,high,NA,NA,NA,NA,NA,NA,NA,false
P6xTpCr6,32204agabep2jqz0kncwzihmy16hgu,3yj6na41jft6atlj28a6uo7k1s6jp8,P6xTpCr6,2020-0188,2020-06-16,22:03:43,22:15:57,NA,incomplete,136,gender,2,1,left,A_F_10.jpg,C_F_13.jpg,A_M_09.jpg,left,690,true,high,NA,NA,NA,NA,NA,NA,NA,false
P6xTpCr6,32204agabep2jqz0kncwzihmy16hgu,3yj6na41jft6atlj28a6uo7k1s6jp8,P6xTpCr6,2020-0188,2020-06-16,22:03:43,22:15:57,NA,incomplete,137,gender,2,0,right,C_F_08.jpg,C_M_02.jpg,A_F_14.jpg,right,579,true,high,NA,NA,NA,NA,NA,NA,NA,false
P6xTpCr6,32204agabep2jqz0kncwzihmy16hgu,3yj6na41jft6atlj28a6uo7k1s6jp8,P6xTpCr6,2020-0188,2020-06-16,22:03:43,22:15:57,NA,incomplete,138,gender,2,1,right,C_M_10.jpg,C_F_12.jpg,A_M_01.jpg,right,745,true,high,NA,NA,NA,NA,NA,NA,NA,false
P6xTpCr6,32204agabep2jqz0kncwzihmy16hgu,3yj6na41jft6atlj28a6uo7k1s6jp8,P6xTpCr6,2020-0188,2020-06-16,22:03:43,22:15:57,NA,incomplete,139,gender,2,0,left,A_M_08.jpg,C_M_10.jpg,A_F_04.jpg,left,655,true,high,NA,NA,NA,NA,NA,NA,NA,false
P6xTpCr6,32204agabep2jqz0kncwzihmy16hgu,3yj6na41jft6atlj28a6uo7k1s6jp8,P6xTpCr6,2020-0188,2020-06-16,22:03:43,22:15:57,NA,incomplete,140,race,3,1,right,C_F_10.jpg,A_F_08.jpg,C_M_07.jpg,left,617,false,high,NA,NA,NA,NA,NA,NA,NA,false
P6xTpCr6,32204agabep2jqz0kncwzihmy16hgu,3yj6na41jft6atlj28a6uo7k1s6jp8,P6xTpCr6,2020-0188,2020-06-16,22:03:43,22:15:57,NA,incomplete,141,race,3,1,right,A_M_02.jpg,C_M_12.jpg,A_F_03.jpg,right,747,true,high,NA,NA,NA,NA,NA,NA,NA,false
P6xTpCr6,32204agabep2jqz0kncwzihmy16hgu,3yj6na41jft6atlj28a6uo7k1s6jp8,P6xTpCr6,2020-0188,2020-06-16,22:03:43,22:15:57,NA,incomplete,142,race,3,1,left,C_F_03.jpg,C_M_14.jpg,A_F_09.jpg,left,701,true,high,NA,NA,NA,NA,NA,NA,NA,false
P6xTpCr6,32204agabep2jqz0kncwzihmy16hgu,3yj6na41jft6atlj28a6uo7k1s6jp8,P6xTpCr6,2020-0188,2020-06-16,22:03:43,22:15:57,NA,incomplete,143,race,3,1,left,C_M_16.jpg,C_F_01.jpg,A_M_14.jpg,left,825,true,high,NA,NA,NA,NA,NA,NA,NA,false
P6xTpCr6,32204agabep2jqz0kncwzihmy16hgu,3yj6na41jft6atlj28a6uo7k1s6jp8,P6xTpCr6,2020-0188,2020-06-16,22:03:43,22:15:57,NA,incomplete,144,race,3,1,right,C_F_07.jpg,A_F_16.jpg,C_M_13.jpg,left,767,false,high,NA,NA,NA,NA,NA,NA,NA,false
P6xTpCr6,32204agabep2jqz0kncwzihmy16hgu,3yj6na41jft6atlj28a6uo7k1s6jp8,P6xTpCr6,2020-0188,2020-06-16,22:03:43,22:15:57,NA,incomplete,145,race,3,0,left,A_M_13.jpg,A_F_08.jpg,C_M_09.jpg,left,725,true,high,NA,NA,NA,NA,NA,NA,NA,false
P6xTpCr6,32204agabep2jqz0kncwzihmy16hgu,3yj6na41jft6atlj28a6uo7k1s6jp8,P6xTpCr6,2020-0188,2020-06-16,22:03:43,22:15:57,NA,incomplete,146,race,3,1,right,A_M_08.jpg,C_M_16.jpg,A_F_09.jpg,right,845,true,high,NA,NA,NA,NA,NA,NA,NA,false
P6xTpCr6,32204agabep2jqz0kncwzihmy16hgu,3yj6na41jft6atlj28a6uo7k1s6jp8,P6xTpCr6,2020-0188,2020-06-16,22:03:43,22:15:57,NA,incomplete,147,race,3,1,left,C_F_10.jpg,C_M_13.jpg,A_F_01.jpg,left,985,true,high,NA,NA,NA,NA,NA,NA,NA,false
P6xTpCr6,32204agabep2jqz0kncwzihmy16hgu,3yj6na41jft6atlj28a6uo7k1s6jp8,P6xTpCr6,2020-0188,2020-06-16,22:03:43,22:15:57,NA,incomplete,148,race,3,1,left,A_M_11.jpg,A_F_05.jpg,C_M_09.jpg,left,742,true,high,NA,NA,NA,NA,NA,NA,NA,false
P6xTpCr6,32204agabep2jqz0kncwzihmy16hgu,3yj6na41jft6atlj28a6uo7k1s6jp8,P6xTpCr6,2020-0188,2020-06-16,22:03:43,22:15:57,NA,incomplete,149,race,3,1,right,A_F_03.jpg,C_F_14.jpg,A_M_16.jpg,right,814,true,high,NA,NA,NA,NA,NA,NA,NA,false
P6xTpCr6,32204agabep2jqz0kncwzihmy16hgu,3yj6na41jft6atlj28a6uo7k1s6jp8,P6xTpCr6,2020-0188,2020-06-16,22:03:43,22:15:57,NA,incomplete,150,race,3,0,right,A_M_07.jpg,C_M_02.jpg,A_F_01.jpg,right,858,true,high,NA,NA,NA,NA,NA,NA,NA,false
P6xTpCr6,32204agabep2jqz0kncwzihmy16hgu,3yj6na41jft6atlj28a6uo7k1s6jp8,P6xTpCr6,2020-0188,2020-06-16,22:03:43,22:15:57,NA,incomplete,151,race,3,1,left,C_M_08.jpg,C_F_06.jpg,A_M_09.jpg,left,756,true,high,NA,NA,NA,NA,NA,NA,NA,false
P6xTpCr6,32204agabep2jqz0kncwzihmy16hgu,3yj6na41jft6atlj28a6uo7k1s6jp8,P6xTpCr6,2020-0188,2020-06-16,22:03:43,22:15:57,NA,incomplete,152,race,3,0,right,C_M_12.jpg,A_M_14.jpg,C_F_04.jpg,right,810,true,high,NA,NA,NA,NA,NA,NA,NA,false
P6xTpCr6,32204agabep2jqz0kncwzihmy16hgu,3yj6na41jft6atlj28a6uo7k1s6jp8,P6xTpCr6,2020-0188,2020-06-16,22:03:43,22:15:57,NA,incomplete,153,race,3,1,right,A_M_01.jpg,C_M_13.jpg,A_F_03.jpg,left,775,false,high,NA,NA,NA,NA,NA,NA,NA,false
P6xTpCr6,32204agabep2jqz0kncwzihmy16hgu,3yj6na41jft6atlj28a6uo7k1s6jp8,P6xTpCr6,2020-0188,2020-06-16,22:03:43,22:15:57,NA,incomplete,154,race,3,1,right,A_M_01.jpg,C_M_05.jpg,A_F_10.jpg,right,774,true,high,NA,NA,NA,NA,NA,NA,NA,false
P6xTpCr6,32204agabep2jqz0kncwzihmy16hgu,3yj6na41jft6atlj28a6uo7k1s6jp8,P6xTpCr6,2020-0188,2020-06-16,22:03:43,22:15:57,NA,incomplete,155,race,3,1,left,A_M_05.jpg,A_F_03.jpg,C_M_10.jpg,left,628,true,high,NA,NA,NA,NA,NA,NA,NA,false
P6xTpCr6,32204agabep2jqz0kncwzihmy16hgu,3yj6na41jft6atlj28a6uo7k1s6jp8,P6xTpCr6,2020-0188,2020-06-16,22:03:43,22:15:57,NA,incomplete,156,race,3,1,left,C_F_08.jpg,C_M_01.jpg,A_F_16.jpg,left,779,true,high,NA,NA,NA,NA,NA,NA,NA,false
P6xTpCr6,32204agabep2jqz0kncwzihmy16hgu,3yj6na41jft6atlj28a6uo7k1s6jp8,P6xTpCr6,2020-0188,2020-06-16,22:03:43,22:15:57,NA,incomplete,157,race,3,0,left,C_M_04.jpg,C_F_13.jpg,A_M_11.jpg,right,851,false,high,NA,NA,NA,NA,NA,NA,NA,false
P6xTpCr6,32204agabep2jqz0kncwzihmy16hgu,3yj6na41jft6atlj28a6uo7k1s6jp8,P6xTpCr6,2020-0188,2020-06-16,22:03:43,22:15:57,NA,incomplete,158,race,3,1,right,A_F_14.jpg,C_F_04.jpg,A_M_06.jpg,right,846,true,high,NA,NA,NA,NA,NA,NA,NA,false
P6xTpCr6,32204agabep2jqz0kncwzihmy16hgu,3yj6na41jft6atlj28a6uo7k1s6jp8,P6xTpCr6,2020-0188,2020-06-16,22:03:43,22:15:57,NA,incomplete,159,race,3,1,right,A_M_01.jpg,C_M_04.jpg,A_F_06.jpg,right,760,true,high,NA,NA,NA,NA,NA,NA,NA,false
P6xTpCr6,32204agabep2jqz0kncwzihmy16hgu,3yj6na41jft6atlj28a6uo7k1s6jp8,P6xTpCr6,2020-0188,2020-06-16,22:03:43,22:15:57,NA,incomplete,160,gender,2,1,left,A_F_11.jpg,C_F_12.jpg,A_M_13.jpg,right,847,false,high,NA,NA,NA,NA,NA,NA,NA,false
P6xTpCr6,32204agabep2jqz0kncwzihmy16hgu,3yj6na41jft6atlj28a6uo7k1s6jp8,P6xTpCr6,2020-0188,2020-06-16,22:03:43,22:15:57,NA,incomplete,161,gender,2,1,left,A_M_04.jpg,C_M_02.jpg,A_F_06.jpg,right,754,false,high,NA,NA,NA,NA,NA,NA,NA,false
P6xTpCr6,32204agabep2jqz0kncwzihmy16hgu,3yj6na41jft6atlj28a6uo7k1s6jp8,P6xTpCr6,2020-0188,2020-06-16,22:03:43,22:15:57,NA,incomplete,162,gender,2,0,right,A_M_03.jpg,A_F_10.jpg,C_M_12.jpg,right,734,true,high,NA,NA,NA,NA,NA,NA,NA,false
P6xTpCr6,32204agabep2jqz0kncwzihmy16hgu,3yj6na41jft6atlj28a6uo7k1s6jp8,P6xTpCr6,2020-0188,2020-06-16,22:03:43,22:15:57,NA,incomplete,163,gender,2,1,right,C_F_15.jpg,C_M_10.jpg,A_F_07.jpg,right,711,true,high,NA,NA,NA,NA,NA,NA,NA,false
P6xTpCr6,32204agabep2jqz0kncwzihmy16hgu,3yj6na41jft6atlj28a6uo7k1s6jp8,P6xTpCr6,2020-0188,2020-06-16,22:03:43,22:15:57,NA,incomplete,164,gender,2,1,right,A_M_06.jpg,A_F_10.jpg,C_M_16.jpg,left,775,false,high,NA,NA,NA,NA,NA,NA,NA,false
P6xTpCr6,32204agabep2jqz0kncwzihmy16hgu,3yj6na41jft6atlj28a6uo7k1s6jp8,P6xTpCr6,2020-0188,2020-06-16,22:03:43,22:15:57,NA,incomplete,165,gender,2,0,right,C_M_07.jpg,C_F_16.jpg,A_M_12.jpg,right,732,true,high,NA,NA,NA,NA,NA,NA,NA,false
P6xTpCr6,32204agabep2jqz0kncwzihmy16hgu,3yj6na41jft6atlj28a6uo7k1s6jp8,P6xTpCr6,2020-0188,2020-06-16,22:03:43,22:15:57,NA,incomplete,166,gender,2,1,right,C_F_09.jpg,C_M_11.jpg,A_F_07.jpg,right,715,true,high,NA,NA,NA,NA,NA,NA,NA,false
P6xTpCr6,32204agabep2jqz0kncwzihmy16hgu,3yj6na41jft6atlj28a6uo7k1s6jp8,P6xTpCr6,2020-0188,2020-06-16,22:03:43,22:15:57,NA,incomplete,167,gender,2,0,left,A_F_13.jpg,C_F_16.jpg,A_M_02.jpg,left,956,true,high,NA,NA,NA,NA,NA,NA,NA,false
P6xTpCr6,32204agabep2jqz0kncwzihmy16hgu,3yj6na41jft6atlj28a6uo7k1s6jp8,P6xTpCr6,2020-0188,2020-06-16,22:03:43,22:15:57,NA,incomplete,168,gender,2,1,right,A_M_12.jpg,A_F_16.jpg,C_M_02.jpg,right,658,true,high,NA,NA,NA,NA,NA,NA,NA,false
P6xTpCr6,32204agabep2jqz0kncwzihmy16hgu,3yj6na41jft6atlj28a6uo7k1s6jp8,P6xTpCr6,2020-0188,2020-06-16,22:03:43,22:15:57,NA,incomplete,169,gender,2,1,left,C_M_11.jpg,A_M_03.jpg,C_F_04.jpg,left,715,true,high,NA,NA,NA,NA,NA,NA,NA,false
P6xTpCr6,32204agabep2jqz0kncwzihmy16hgu,3yj6na41jft6atlj28a6uo7k1s6jp8,P6xTpCr6,2020-0188,2020-06-16,22:03:43,22:15:57,NA,incomplete,170,gender,2,1,left,A_M_11.jpg,C_M_05.jpg,A_F_04.jpg,left,629,true,high,NA,NA,NA,NA,NA,NA,NA,false
P6xTpCr6,32204agabep2jqz0kncwzihmy16hgu,3yj6na41jft6atlj28a6uo7k1s6jp8,P6xTpCr6,2020-0188,2020-06-16,22:03:43,22:15:57,NA,incomplete,171,gender,2,1,left,A_M_04.jpg,C_M_09.jpg,A_F_03.jpg,right,839,false,high,NA,NA,NA,NA,NA,NA,NA,false
P6xTpCr6,32204agabep2jqz0kncwzihmy16hgu,3yj6na41jft6atlj28a6uo7k1s6jp8,P6xTpCr6,2020-0188,2020-06-16,22:03:43,22:15:57,NA,incomplete,172,gender,2,1,left,A_F_15.jpg,C_F_13.jpg,A_M_09.jpg,left,650,true,high,NA,NA,NA,NA,NA,NA,NA,false
P6xTpCr6,32204agabep2jqz0kncwzihmy16hgu,3yj6na41jft6atlj28a6uo7k1s6jp8,P6xTpCr6,2020-0188,2020-06-16,22:03:43,22:15:57,NA,incomplete,173,gender,2,1,right,A_M_11.jpg,A_F_06.jpg,C_M_14.jpg,left,875,false,high,NA,NA,NA,NA,NA,NA,NA,false
P6xTpCr6,32204agabep2jqz0kncwzihmy16hgu,3yj6na41jft6atlj28a6uo7k1s6jp8,P6xTpCr6,2020-0188,2020-06-16,22:03:43,22:15:57,NA,incomplete,174,gender,2,1,left,C_F_12.jpg,A_F_07.jpg,C_M_06.jpg,left,764,true,high,NA,NA,NA,NA,NA,NA,NA,false
P6xTpCr6,32204agabep2jqz0kncwzihmy16hgu,3yj6na41jft6atlj28a6uo7k1s6jp8,P6xTpCr6,2020-0188,2020-06-16,22:03:43,22:15:57,NA,incomplete,175,gender,2,0,left,C_F_08.jpg,A_F_15.jpg,C_M_12.jpg,left,629,true,high,NA,NA,NA,NA,NA,NA,NA,false
P6xTpCr6,32204agabep2jqz0kncwzihmy16hgu,3yj6na41jft6atlj28a6uo7k1s6jp8,P6xTpCr6,2020-0188,2020-06-16,22:03:43,22:15:57,NA,incomplete,176,gender,2,1,left,A_F_08.jpg,C_F_04.jpg,A_M_13.jpg,right,696,false,high,NA,NA,NA,NA,NA,NA,NA,false
P6xTpCr6,32204agabep2jqz0kncwzihmy16hgu,3yj6na41jft6atlj28a6uo7k1s6jp8,P6xTpCr6,2020-0188,2020-06-16,22:03:43,22:15:57,NA,incomplete,177,gender,2,0,right,A_F_13.jpg,A_M_12.jpg,C_F_07.jpg,right,735,true,high,NA,NA,NA,NA,NA,NA,NA,false
P6xTpCr6,32204agabep2jqz0kncwzihmy16hgu,3yj6na41jft6atlj28a6uo7k1s6jp8,P6xTpCr6,2020-0188,2020-06-16,22:03:43,22:15:57,NA,incomplete,178,gender,2,1,left,A_M_11.jpg,C_M_12.jpg,A_F_13.jpg,left,649,true,high,NA,NA,NA,NA,NA,NA,NA,false
P6xTpCr6,32204agabep2jqz0kncwzihmy16hgu,3yj6na41jft6atlj28a6uo7k1s6jp8,P6xTpCr6,2020-0188,2020-06-16,22:03:43,22:15:57,NA,incomplete,179,gender,2,1,left,C_M_02.jpg,A_M_16.jpg,C_F_08.jpg,left,611,true,high,NA,NA,NA,NA,NA,NA,NA,false
P6xTpCr6,32204agabep2jqz0kncwzihmy16hgu,3yj6na41jft6atlj28a6uo7k1s6jp8,P6xTpCr6,2020-0188,2020-06-16,22:03:43,22:15:57,NA,incomplete,180,race,3,1,left,A_M_15.jpg,A_F_04.jpg,C_M_13.jpg,right,614,false,high,NA,NA,NA,NA,NA,NA,NA,false
P6xTpCr6,32204agabep2jqz0kncwzihmy16hgu,3yj6na41jft6atlj28a6uo7k1s6jp8,P6xTpCr6,2020-0188,2020-06-16,22:03:43,22:15:57,NA,incomplete,181,race,3,1,left,C_F_06.jpg,C_M_16.jpg,A_F_14.jpg,right,724,false,high,NA,NA,NA,NA,NA,NA,NA,false
P6xTpCr6,32204agabep2jqz0kncwzihmy16hgu,3yj6na41jft6atlj28a6uo7k1s6jp8,P6xTpCr6,2020-0188,2020-06-16,22:03:43,22:15:57,NA,incomplete,182,race,3,1,right,A_M_13.jpg,C_M_07.jpg,A_F_12.jpg,right,721,true,high,NA,NA,NA,NA,NA,NA,NA,false
P6xTpCr6,32204agabep2jqz0kncwzihmy16hgu,3yj6na41jft6atlj28a6uo7k1s6jp8,P6xTpCr6,2020-0188,2020-06-16,22:03:43,22:15:57,NA,incomplete,183,race,3,0,right,A_M_05.jpg,C_M_07.jpg,A_F_13.jpg,right,640,true,high,NA,NA,NA,NA,NA,NA,NA,false
P6xTpCr6,32204agabep2jqz0kncwzihmy16hgu,3yj6na41jft6atlj28a6uo7k1s6jp8,P6xTpCr6,2020-0188,2020-06-16,22:03:43,22:15:57,NA,incomplete,184,race,3,1,left,C_F_16.jpg,C_M_03.jpg,A_F_14.jpg,right,747,false,high,NA,NA,NA,NA,NA,NA,NA,false
P6xTpCr6,32204agabep2jqz0kncwzihmy16hgu,3yj6na41jft6atlj28a6uo7k1s6jp8,P6xTpCr6,2020-0188,2020-06-16,22:03:43,22:15:57,NA,incomplete,185,race,3,1,left,C_M_16.jpg,C_F_01.jpg,A_M_03.jpg,right,987,false,high,NA,NA,NA,NA,NA,NA,NA,false
P6xTpCr6,32204agabep2jqz0kncwzihmy16hgu,3yj6na41jft6atlj28a6uo7k1s6jp8,P6xTpCr6,2020-0188,2020-06-16,22:03:43,22:15:57,NA,incomplete,186,race,3,1,left,C_M_11.jpg,C_F_07.jpg,A_M_14.jpg,left,952,true,high,NA,NA,NA,NA,NA,NA,NA,false
P6xTpCr6,32204agabep2jqz0kncwzihmy16hgu,3yj6na41jft6atlj28a6uo7k1s6jp8,P6xTpCr6,2020-0188,2020-06-16,22:03:43,22:15:57,NA,incomplete,187,race,3,1,left,A_F_16.jpg,A_M_05.jpg,C_F_03.jpg,left,919,true,high,NA,NA,NA,NA,NA,NA,NA,false
P6xTpCr6,32204agabep2jqz0kncwzihmy16hgu,3yj6na41jft6atlj28a6uo7k1s6jp8,P6xTpCr6,2020-0188,2020-06-16,22:03:43,22:15:57,NA,incomplete,188,race,3,1,left,A_M_04.jpg,A_F_08.jpg,C_M_10.jpg,left,607,true,high,NA,NA,NA,NA,NA,NA,NA,false
P6xTpCr6,32204agabep2jqz0kncwzihmy16hgu,3yj6na41jft6atlj28a6uo7k1s6jp8,P6xTpCr6,2020-0188,2020-06-16,22:03:43,22:15:57,NA,incomplete,189,race,3,1,left,A_F_07.jpg,A_M_01.jpg,C_F_14.jpg,left,765,true,high,NA,NA,NA,NA,NA,NA,NA,false
P6xTpCr6,32204agabep2jqz0kncwzihmy16hgu,3yj6na41jft6atlj28a6uo7k1s6jp8,P6xTpCr6,2020-0188,2020-06-16,22:03:43,22:15:57,NA,incomplete,190,race,3,1,left,C_M_15.jpg,C_F_10.jpg,A_M_01.jpg,right,648,false,high,NA,NA,NA,NA,NA,NA,NA,false
P6xTpCr6,32204agabep2jqz0kncwzihmy16hgu,3yj6na41jft6atlj28a6uo7k1s6jp8,P6xTpCr6,2020-0188,2020-06-16,22:03:43,22:15:57,NA,incomplete,191,race,3,1,left,A_F_05.jpg,A_M_06.jpg,C_F_01.jpg,right,700,false,high,NA,NA,NA,NA,NA,NA,NA,false
P6xTpCr6,32204agabep2jqz0kncwzihmy16hgu,3yj6na41jft6atlj28a6uo7k1s6jp8,P6xTpCr6,2020-0188,2020-06-16,22:03:43,22:15:57,NA,incomplete,192,race,3,1,left,C_F_07.jpg,C_M_12.jpg,A_F_15.jpg,left,724,true,high,NA,NA,NA,NA,NA,NA,NA,false
P6xTpCr6,32204agabep2jqz0kncwzihmy16hgu,3yj6na41jft6atlj28a6uo7k1s6jp8,P6xTpCr6,2020-0188,2020-06-16,22:03:43,22:15:57,NA,incomplete,193,race,3,1,right,C_M_02.jpg,A_M_16.jpg,C_F_04.jpg,left,786,false,high,NA,NA,NA,NA,NA,NA,NA,false
P6xTpCr6,32204agabep2jqz0kncwzihmy16hgu,3yj6na41jft6atlj28a6uo7k1s6jp8,P6xTpCr6,2020-0188,2020-06-16,22:03:43,22:15:57,NA,incomplete,194,race,3,0,left,A_M_09.jpg,A_F_08.jpg,C_M_07.jpg,left,761,true,high,NA,NA,NA,NA,NA,NA,NA,false
P6xTpCr6,32204agabep2jqz0kncwzihmy16hgu,3yj6na41jft6atlj28a6uo7k1s6jp8,P6xTpCr6,2020-0188,2020-06-16,22:03:43,22:15:57,NA,incomplete,195,race,3,1,left,C_F_11.jpg,C_M_14.jpg,A_F_06.jpg,right,877,false,high,NA,NA,NA,NA,NA,NA,NA,false
P6xTpCr6,32204agabep2jqz0kncwzihmy16hgu,3yj6na41jft6atlj28a6uo7k1s6jp8,P6xTpCr6,2020-0188,2020-06-16,22:03:43,22:15:57,NA,incomplete,196,race,3,1,right,A_F_14.jpg,C_F_08.jpg,A_M_04.jpg,right,835,true,high,NA,NA,NA,NA,NA,NA,NA,false
P6xTpCr6,32204agabep2jqz0kncwzihmy16hgu,3yj6na41jft6atlj28a6uo7k1s6jp8,P6xTpCr6,2020-0188,2020-06-16,22:03:43,22:15:57,NA,incomplete,197,race,3,0,left,A_F_08.jpg,A_M_06.jpg,C_F_12.jpg,left,740,true,high,NA,NA,NA,NA,NA,NA,NA,false
P6xTpCr6,32204agabep2jqz0kncwzihmy16hgu,3yj6na41jft6atlj28a6uo7k1s6jp8,P6xTpCr6,2020-0188,2020-06-16,22:03:43,22:15:57,NA,incomplete,198,race,3,1,left,C_F_16.jpg,C_M_04.jpg,A_F_07.jpg,left,772,true,high,NA,NA,NA,NA,NA,NA,NA,false
P6xTpCr6,32204agabep2jqz0kncwzihmy16hgu,3yj6na41jft6atlj28a6uo7k1s6jp8,P6xTpCr6,2020-0188,2020-06-16,22:03:43,22:15:57,NA,incomplete,199,race,3,1,left,A_F_07.jpg,A_M_04.jpg,C_F_05.jpg,left,856,true,high,NA,NA,NA,NA,NA,NA,NA,false
P6xTpCr6,32204agabep2jqz0kncwzihmy16hgu,3yj6na41jft6atlj28a6uo7k1s6jp8,P6xTpCr6,2020-0188,2020-06-16,22:03:43,22:15:57,NA,incomplete,200,gender,2,1,left,A_M_05.jpg,C_M_01.jpg,A_F_07.jpg,right,580,false,high,NA,NA,NA,NA,NA,NA,NA,false
P6xTpCr6,32204agabep2jqz0kncwzihmy16hgu,3yj6na41jft6atlj28a6uo7k1s6jp8,P6xTpCr6,2020-0188,2020-06-16,22:03:43,22:15:57,NA,incomplete,201,gender,2,1,right,C_M_07.jpg,C_F_03.jpg,A_M_15.jpg,left,849,false,high,NA,NA,NA,NA,NA,NA,NA,false
P6xTpCr6,32204agabep2jqz0kncwzihmy16hgu,3yj6na41jft6atlj28a6uo7k1s6jp8,P6xTpCr6,2020-0188,2020-06-16,22:03:43,22:15:57,NA,incomplete,202,gender,2,1,right,C_F_05.jpg,C_M_01.jpg,A_F_13.jpg,left,702,false,high,NA,NA,NA,NA,NA,NA,NA,false
P6xTpCr6,32204agabep2jqz0kncwzihmy16hgu,3yj6na41jft6atlj28a6uo7k1s6jp8,P6xTpCr6,2020-0188,2020-06-16,22:03:43,22:15:57,NA,incomplete,203,gender,2,0,left,A_F_06.jpg,C_F_10.jpg,A_M_01.jpg,left,778,true,high,NA,NA,NA,NA,NA,NA,NA,false
P6xTpCr6,32204agabep2jqz0kncwzihmy16hgu,3yj6na41jft6atlj28a6uo7k1s6jp8,P6xTpCr6,2020-0188,2020-06-16,22:03:43,22:15:57,NA,incomplete,204,gender,2,1,left,C_F_08.jpg,A_F_12.jpg,C_M_02.jpg,left,625,true,high,NA,NA,NA,NA,NA,NA,NA,false
P6xTpCr6,32204agabep2jqz0kncwzihmy16hgu,3yj6na41jft6atlj28a6uo7k1s6jp8,P6xTpCr6,2020-0188,2020-06-16,22:03:43,22:15:57,NA,incomplete,205,gender,2,0,right,C_F_03.jpg,C_M_13.jpg,A_F_14.jpg,right,714,true,high,NA,NA,NA,NA,NA,NA,NA,false
P6xTpCr6,32204agabep2jqz0kncwzihmy16hgu,3yj6na41jft6atlj28a6uo7k1s6jp8,P6xTpCr6,2020-0188,2020-06-16,22:03:43,22:15:57,NA,incomplete,206,gender,2,1,left,C_F_13.jpg,A_F_04.jpg,C_M_08.jpg,right,796,false,high,NA,NA,NA,NA,NA,NA,NA,false
P6xTpCr6,32204agabep2jqz0kncwzihmy16hgu,3yj6na41jft6atlj28a6uo7k1s6jp8,P6xTpCr6,2020-0188,2020-06-16,22:03:43,22:15:57,NA,incomplete,207,gender,2,1,right,C_F_09.jpg,C_M_11.jpg,A_F_01.jpg,right,976,true,high,NA,NA,NA,NA,NA,NA,NA,false
P6xTpCr6,32204agabep2jqz0kncwzihmy16hgu,3yj6na41jft6atlj28a6uo7k1s6jp8,P6xTpCr6,2020-0188,2020-06-16,22:03:43,22:15:57,NA,incomplete,208,gender,2,1,left,A_F_04.jpg,C_F_02.jpg,A_M_05.jpg,left,673,true,high,NA,NA,NA,NA,NA,NA,NA,false
P6xTpCr6,32204agabep2jqz0kncwzihmy16hgu,3yj6na41jft6atlj28a6uo7k1s6jp8,P6xTpCr6,2020-0188,2020-06-16,22:03:43,22:15:57,NA,incomplete,209,gender,2,1,right,C_M_09.jpg,C_F_15.jpg,A_M_01.jpg,right,665,true,high,NA,NA,NA,NA,NA,NA,NA,false
P6xTpCr6,32204agabep2jqz0kncwzihmy16hgu,3yj6na41jft6atlj28a6uo7k1s6jp8,P6xTpCr6,2020-0188,2020-06-16,22:03:43,22:15:57,NA,incomplete,210,gender,2,1,right,A_F_14.jpg,A_M_13.jpg,C_F_01.jpg,left,587,false,high,NA,NA,NA,NA,NA,NA,NA,false
P6xTpCr6,32204agabep2jqz0kncwzihmy16hgu,3yj6na41jft6atlj28a6uo7k1s6jp8,P6xTpCr6,2020-0188,2020-06-16,22:03:43,22:15:57,NA,incomplete,211,gender,2,1,right,C_M_06.jpg,C_F_01.jpg,A_M_13.jpg,right,734,true,high,NA,NA,NA,NA,NA,NA,NA,false
P6xTpCr6,32204agabep2jqz0kncwzihmy16hgu,3yj6na41jft6atlj28a6uo7k1s6jp8,P6xTpCr6,2020-0188,2020-06-16,22:03:43,22:15:57,NA,incomplete,212,gender,2,1,left,C_M_04.jpg,A_M_08.jpg,C_F_06.jpg,left,789,true,high,NA,NA,NA,NA,NA,NA,NA,false
P6xTpCr6,32204agabep2jqz0kncwzihmy16hgu,3yj6na41jft6atlj28a6uo7k1s6jp8,P6xTpCr6,2020-0188,2020-06-16,22:03:43,22:15:57,NA,incomplete,213,gender,2,0,left,C_M_08.jpg,A_M_15.jpg,C_F_11.jpg,left,796,true,high,NA,NA,NA,NA,NA,NA,NA,false
P6xTpCr6,32204agabep2jqz0kncwzihmy16hgu,3yj6na41jft6atlj28a6uo7k1s6jp8,P6xTpCr6,2020-0188,2020-06-16,22:03:43,22:15:57,NA,incomplete,214,gender,2,1,right,A_F_08.jpg,A_M_09.jpg,C_F_16.jpg,right,727,true,high,NA,NA,NA,NA,NA,NA,NA,false
P6xTpCr6,32204agabep2jqz0kncwzihmy16hgu,3yj6na41jft6atlj28a6uo7k1s6jp8,P6xTpCr6,2020-0188,2020-06-16,22:03:43,22:15:57,NA,incomplete,215,gender,2,0,right,C_M_15.jpg,C_F_14.jpg,A_M_16.jpg,left,767,false,high,NA,NA,NA,NA,NA,NA,NA,false
P6xTpCr6,32204agabep2jqz0kncwzihmy16hgu,3yj6na41jft6atlj28a6uo7k1s6jp8,P6xTpCr6,2020-0188,2020-06-16,22:03:43,22:15:57,NA,incomplete,216,gender,2,1,left,A_M_10.jpg,C_M_15.jpg,A_F_13.jpg,left,934,true,high,NA,NA,NA,NA,NA,NA,NA,false
P6xTpCr6,32204agabep2jqz0kncwzihmy16hgu,3yj6na41jft6atlj28a6uo7k1s6jp8,P6xTpCr6,2020-0188,2020-06-16,22:03:43,22:15:57,NA,incomplete,217,gender,2,1,left,C_M_10.jpg,A_M_11.jpg,C_F_07.jpg,left,716,true,high,NA,NA,NA,NA,NA,NA,NA,false
P6xTpCr6,32204agabep2jqz0kncwzihmy16hgu,3yj6na41jft6atlj28a6uo7k1s6jp8,P6xTpCr6,2020-0188,2020-06-16,22:03:43,22:15:57,NA,incomplete,218,gender,2,0,right,C_M_16.jpg,C_F_10.jpg,A_M_12.jpg,right,686,true,high,NA,NA,NA,NA,NA,NA,NA,false
P6xTpCr6,32204agabep2jqz0kncwzihmy16hgu,3yj6na41jft6atlj28a6uo7k1s6jp8,P6xTpCr6,2020-0188,2020-06-16,22:03:43,22:15:57,NA,incomplete,219,gender,2,1,left,A_M_10.jpg,C_M_04.jpg,A_F_12.jpg,left,596,true,high,NA,NA,NA,NA,NA,NA,NA,false
P6xTpCr6,32204agabep2jqz0kncwzihmy16hgu,3yj6na41jft6atlj28a6uo7k1s6jp8,P6xTpCr6,2020-0188,2020-06-16,22:03:43,22:15:57,NA,incomplete,220,race,3,1,left,C_F_09.jpg,C_M_14.jpg,A_F_15.jpg,right,704,false,high,NA,NA,NA,NA,NA,NA,NA,false
P6xTpCr6,32204agabep2jqz0kncwzihmy16hgu,3yj6na41jft6atlj28a6uo7k1s6jp8,P6xTpCr6,2020-0188,2020-06-16,22:03:43,22:15:57,NA,incomplete,221,race,3,1,left,A_F_02.jpg,A_M_07.jpg,C_F_11.jpg,right,635,false,high,NA,NA,NA,NA,NA,NA,NA,false
P6xTpCr6,32204agabep2jqz0kncwzihmy16hgu,3yj6na41jft6atlj28a6uo7k1s6jp8,P6xTpCr6,2020-0188,2020-06-16,22:03:43,22:15:57,NA,incomplete,222,race,3,1,right,C_M_15.jpg,A_M_07.jpg,C_F_08.jpg,left,1045,false,high,NA,NA,NA,NA,NA,NA,NA,false
P6xTpCr6,32204agabep2jqz0kncwzihmy16hgu,3yj6na41jft6atlj28a6uo7k1s6jp8,P6xTpCr6,2020-0188,2020-06-16,22:03:43,22:15:57,NA,incomplete,223,race,3,1,left,A_M_09.jpg,A_F_08.jpg,C_M_06.jpg,left,681,true,high,NA,NA,NA,NA,NA,NA,NA,false
P6xTpCr6,32204agabep2jqz0kncwzihmy16hgu,3yj6na41jft6atlj28a6uo7k1s6jp8,P6xTpCr6,2020-0188,2020-06-16,22:03:43,22:15:57,NA,incomplete,224,race,3,1,left,C_F_11.jpg,C_M_16.jpg,A_F_01.jpg,right,617,false,high,NA,NA,NA,NA,NA,NA,NA,false
P6xTpCr6,32204agabep2jqz0kncwzihmy16hgu,3yj6na41jft6atlj28a6uo7k1s6jp8,P6xTpCr6,2020-0188,2020-06-16,22:03:43,22:15:57,NA,incomplete,225,race,3,1,left,A_F_16.jpg,A_M_07.jpg,C_F_14.jpg,left,790,true,high,NA,NA,NA,NA,NA,NA,NA,false
P6xTpCr6,32204agabep2jqz0kncwzihmy16hgu,3yj6na41jft6atlj28a6uo7k1s6jp8,P6xTpCr6,2020-0188,2020-06-16,22:03:43,22:15:57,NA,incomplete,226,race,3,0,left,A_M_14.jpg,A_F_16.jpg,C_M_02.jpg,left,643,true,high,NA,NA,NA,NA,NA,NA,NA,false
P6xTpCr6,32204agabep2jqz0kncwzihmy16hgu,3yj6na41jft6atlj28a6uo7k1s6jp8,P6xTpCr6,2020-0188,2020-06-16,22:03:43,22:15:57,NA,incomplete,227,race,3,1,right,C_M_09.jpg,A_M_08.jpg,C_F_07.jpg,left,852,false,high,NA,NA,NA,NA,NA,NA,NA,false
P6xTpCr6,32204agabep2jqz0kncwzihmy16hgu,3yj6na41jft6atlj28a6uo7k1s6jp8,P6xTpCr6,2020-0188,2020-06-16,22:03:43,22:15:57,NA,incomplete,228,race,3,0,right,A_M_05.jpg,C_M_07.jpg,A_F_06.jpg,right,600,true,high,NA,NA,NA,NA,NA,NA,NA,false
P6xTpCr6,32204agabep2jqz0kncwzihmy16hgu,3yj6na41jft6atlj28a6uo7k1s6jp8,P6xTpCr6,2020-0188,2020-06-16,22:03:43,22:15:57,NA,incomplete,229,race,3,1,right,C_M_08.jpg,A_M_04.jpg,C_F_02.jpg,left,573,false,high,NA,NA,NA,NA,NA,NA,NA,false
P6xTpCr6,32204agabep2jqz0kncwzihmy16hgu,3yj6na41jft6atlj28a6uo7k1s6jp8,P6xTpCr6,2020-0188,2020-06-16,22:03:43,22:15:57,NA,incomplete,230,race,3,0,right,C_M_15.jpg,A_M_03.jpg,C_F_02.jpg,right,639,true,high,NA,NA,NA,NA,NA,NA,NA,false
P6xTpCr6,32204agabep2jqz0kncwzihmy16hgu,3yj6na41jft6atlj28a6uo7k1s6jp8,P6xTpCr6,2020-0188,2020-06-16,22:03:43,22:15:57,NA,incomplete,231,race,3,1,left,C_F_08.jpg,C_M_14.jpg,A_F_10.jpg,right,692,false,high,NA,NA,NA,NA,NA,NA,NA,false
P6xTpCr6,32204agabep2jqz0kncwzihmy16hgu,3yj6na41jft6atlj28a6uo7k1s6jp8,P6xTpCr6,2020-0188,2020-06-16,22:03:43,22:15:57,NA,incomplete,232,race,3,1,left,A_F_02.jpg,A_M_12.jpg,C_F_05.jpg,left,709,true,high,NA,NA,NA,NA,NA,NA,NA,false
P6xTpCr6,32204agabep2jqz0kncwzihmy16hgu,3yj6na41jft6atlj28a6uo7k1s6jp8,P6xTpCr6,2020-0188,2020-06-16,22:03:43,22:15:57,NA,incomplete,233,race,3,1,right,C_F_06.jpg,A_F_10.jpg,C_M_09.jpg,right,628,true,high,NA,NA,NA,NA,NA,NA,NA,false
P6xTpCr6,32204agabep2jqz0kncwzihmy16hgu,3yj6na41jft6atlj28a6uo7k1s6jp8,P6xTpCr6,2020-0188,2020-06-16,22:03:43,22:15:57,NA,incomplete,234,race,3,0,left,C_F_12.jpg,C_M_05.jpg,A_F_03.jpg,left,630,true,high,NA,NA,NA,NA,NA,NA,NA,false
P6xTpCr6,32204agabep2jqz0kncwzihmy16hgu,3yj6na41jft6atlj28a6uo7k1s6jp8,P6xTpCr6,2020-0188,2020-06-16,22:03:43,22:15:57,NA,incomplete,235,race,3,1,left,C_M_06.jpg,C_F_03.jpg,A_M_16.jpg,left,835,true,high,NA,NA,NA,NA,NA,NA,NA,false
P6xTpCr6,32204agabep2jqz0kncwzihmy16hgu,3yj6na41jft6atlj28a6uo7k1s6jp8,P6xTpCr6,2020-0188,2020-06-16,22:03:43,22:15:57,NA,incomplete,236,race,3,1,left,A_M_01.jpg,A_F_11.jpg,C_M_08.jpg,left,637,true,high,NA,NA,NA,NA,NA,NA,NA,false
P6xTpCr6,32204agabep2jqz0kncwzihmy16hgu,3yj6na41jft6atlj28a6uo7k1s6jp8,P6xTpCr6,2020-0188,2020-06-16,22:03:43,22:15:57,NA,incomplete,237,race,3,1,right,C_M_01.jpg,A_M_13.jpg,C_F_09.jpg,right,751,true,high,NA,NA,NA,NA,NA,NA,NA,false
P6xTpCr6,32204agabep2jqz0kncwzihmy16hgu,3yj6na41jft6atlj28a6uo7k1s6jp8,P6xTpCr6,2020-0188,2020-06-16,22:03:43,22:15:57,NA,incomplete,238,race,3,1,right,C_M_07.jpg,A_M_02.jpg,C_F_08.jpg,right,720,true,high,NA,NA,NA,NA,NA,NA,NA,false
P6xTpCr6,32204agabep2jqz0kncwzihmy16hgu,3yj6na41jft6atlj28a6uo7k1s6jp8,P6xTpCr6,2020-0188,2020-06-16,22:03:43,22:15:57,NA,incomplete,239,race,3,1,right,C_M_09.jpg,A_M_10.jpg,C_F_03.jpg,left,639,false,high,NA,NA,NA,NA,NA,NA,NA,false
P6xTpCr6,32204agabep2jqz0kncwzihmy16hgu,3yj6na41jft6atlj28a6uo7k1s6jp8,P6xTpCr6,2020-0188,2020-06-16,22:03:43,22:15:57,NA,NA,instruction example,shape,NA,NA,NA,Blue_Triangle_Dots_3.jpg,Green_Triangle_Chess_4.jpg,Blue_Circle_Stripes_2.jpg,NA,NA,NA,NA,NA,NA,NA,NA,NA,NA,NA,undefined
P6xTpCr6,32204agabep2jqz0kncwzihmy16hgu,3yj6na41jft6atlj28a6uo7k1s6jp8,P6xTpCr6,2020-0188,2020-06-16,22:03:43,22:15:57,NA,NA,instruction example,shape,NA,NA,NA,Purple_Plus_Grid_3.jpg,Purple_Triangle_Dots_1.jpg,Blue_Plus_Stripes_4.jpg,NA,NA,NA,NA,NA,NA,NA,NA,NA,NA,NA,undefined
P6xTpCr6,32204agabep2jqz0kncwzihmy16hgu,3yj6na41jft6atlj28a6uo7k1s6jp8,P6xTpCr6,2020-0188,2020-06-16,22:03:43,22:15:57,NA,NA,instruction example,shape,NA,NA,NA,A_M_11.jpg,C_M_01.jpg,A_F_08.jpg,NA,NA,NA,NA,NA,NA,NA,NA,NA,NA,NA,undefined
P6xTpCr6,32204agabep2jqz0kncwzihmy16hgu,3yj6na41jft6atlj28a6uo7k1s6jp8,P6xTpCr6,2020-0188,2020-06-16,22:03:43,22:15:57,NA,NA,instruction example,shape,NA,NA,NA,C_M_11.jpg,C_F_12.jpg,A_M_05.jpg,NA,NA,NA,NA,NA,NA,NA,NA,NA,NA,NA,undefined
P6xTpCr6,32204agabep2jqz0kncwzihmy16hgu,3yj6na41jft6atlj28a6uo7k1s6jp8,P6xTpCr6,2020-0188,2020-06-16,22:03:43,22:15:57,672630,734394,NA,NA,NA,NA,NA,NA,NA,NA,NA,NA,NA,NA,37,White/Caucasian,Female,Caucasian,no,yes,no,undefined
