workerId,hitId,assignmentId,subject,studyid,exp_date,exp_start,exp_end,time_start,time_end,trial,type,sequence,reward_validity,answer,image_top,image_left,image_right,response,response_time,response_acc,volatility,practice
arXFqsPc,3oplmf3ev80afezcyc4phujqmmslnu,3ymtujh0dwtez3v5giwmtwjz2hut4n,arXFqsPc,2020-0188,2020-11-17,06:56:17,07:15:46,NA,incomplete,0,number,0,1,left,Green_Triangle_Chess_3.jpg,Blue_Star_Stripes_3.jpg,Green_Circle_Grid_4.jpg,none,0,false,NA,true
arXFqsPc,3oplmf3ev80afezcyc4phujqmmslnu,3ymtujh0dwtez3v5giwmtwjz2hut4n,arXFqsPc,2020-0188,2020-11-17,06:56:17,07:15:46,NA,incomplete,1,number,0,1,left,Purple_Plus_Stripes_3.jpg,Blue_Triangle_Dots_3.jpg,Purple_Star_Grid_4.jpg,left,1494.6999999810942,true,NA,true
arXFqsPc,3oplmf3ev80afezcyc4phujqmmslnu,3ymtujh0dwtez3v5giwmtwjz2hut4n,arXFqsPc,2020-0188,2020-11-17,06:56:17,07:15:46,NA,incomplete,2,number,0,1,left,Green_Circle_Chess_4.jpg,Purple_Plus_Grid_4.jpg,Green_Star_Dots_1.jpg,left,1456.6050000139512,true,NA,true
arXFqsPc,3oplmf3ev80afezcyc4phujqmmslnu,3ymtujh0dwtez3v5giwmtwjz2hut4n,arXFqsPc,2020-0188,2020-11-17,06:56:17,07:15:46,NA,incomplete,3,number,0,1,left,Green_Plus_Stripes_1.jpg,Red_Circle_Chess_1.jpg,Green_Star_Dots_3.jpg,left,916.254999989178,true,NA,true
arXFqsPc,3oplmf3ev80afezcyc4phujqmmslnu,3ymtujh0dwtez3v5giwmtwjz2hut4n,arXFqsPc,2020-0188,2020-11-17,06:56:17,07:15:46,NA,incomplete,4,number,0,1,right,Green_Triangle_Grid_4.jpg,Green_Circle_Stripes_2.jpg,Red_Star_Dots_4.jpg,right,1146.2899999460205,true,NA,true
arXFqsPc,3oplmf3ev80afezcyc4phujqmmslnu,3ymtujh0dwtez3v5giwmtwjz2hut4n,arXFqsPc,2020-0188,2020-11-17,06:56:17,07:15:46,NA,incomplete,5,number,0,0,right,Blue_Star_Chess_2.jpg,Blue_Plus_Dots_1.jpg,Purple_Circle_Stripes_2.jpg,right,1025.6599999847822,true,NA,true
arXFqsPc,3oplmf3ev80afezcyc4phujqmmslnu,3ymtujh0dwtez3v5giwmtwjz2hut4n,arXFqsPc,2020-0188,2020-11-17,06:56:17,07:15:46,NA,incomplete,6,number,0,1,right,Green_Circle_Chess_2.jpg,Green_Triangle_Grid_1.jpg,Blue_Star_Dots_2.jpg,right,1407.2549999691546,true,NA,true
arXFqsPc,3oplmf3ev80afezcyc4phujqmmslnu,3ymtujh0dwtez3v5giwmtwjz2hut4n,arXFqsPc,2020-0188,2020-11-17,06:56:17,07:15:46,NA,incomplete,7,number,0,1,right,Green_Plus_Stripes_3.jpg,Green_Star_Chess_2.jpg,Red_Triangle_Grid_3.jpg,right,1389.5949999568984,true,NA,true
arXFqsPc,3oplmf3ev80afezcyc4phujqmmslnu,3ymtujh0dwtez3v5giwmtwjz2hut4n,arXFqsPc,2020-0188,2020-11-17,06:56:17,07:15:46,NA,incomplete,8,number,0,1,left,Red_Star_Stripes_4.jpg,Purple_Triangle_Grid_4.jpg,Red_Circle_Chess_1.jpg,left,1073.2399999978952,true,NA,true
arXFqsPc,3oplmf3ev80afezcyc4phujqmmslnu,3ymtujh0dwtez3v5giwmtwjz2hut4n,arXFqsPc,2020-0188,2020-11-17,06:56:17,07:15:46,NA,incomplete,9,number,0,1,right,Blue_Circle_Stripes_2.jpg,Blue_Star_Dots_4.jpg,Red_Plus_Chess_2.jpg,right,1467.2749999444932,true,NA,true
arXFqsPc,3oplmf3ev80afezcyc4phujqmmslnu,3ymtujh0dwtez3v5giwmtwjz2hut4n,arXFqsPc,2020-0188,2020-11-17,06:56:17,07:15:46,NA,incomplete,10,number,0,1,left,Purple_Circle_Dots_4.jpg,Green_Triangle_Stripes_4.jpg,Purple_Star_Chess_2.jpg,left,1233.5500000044703,true,NA,true
arXFqsPc,3oplmf3ev80afezcyc4phujqmmslnu,3ymtujh0dwtez3v5giwmtwjz2hut4n,arXFqsPc,2020-0188,2020-11-17,06:56:17,07:15:46,NA,incomplete,11,number,0,1,right,Green_Star_Grid_2.jpg,Green_Plus_Chess_3.jpg,Blue_Triangle_Stripes_2.jpg,right,1204.6099999570288,true,NA,true
arXFqsPc,3oplmf3ev80afezcyc4phujqmmslnu,3ymtujh0dwtez3v5giwmtwjz2hut4n,arXFqsPc,2020-0188,2020-11-17,06:56:17,07:15:46,NA,incomplete,12,number,0,1,right,Green_Triangle_Dots_1.jpg,Green_Star_Stripes_2.jpg,Blue_Circle_Grid_1.jpg,left,1005.4150000214577,false,NA,true
arXFqsPc,3oplmf3ev80afezcyc4phujqmmslnu,3ymtujh0dwtez3v5giwmtwjz2hut4n,arXFqsPc,2020-0188,2020-11-17,06:56:17,07:15:46,NA,incomplete,13,number,0,0,left,Blue_Circle_Grid_3.jpg,Green_Star_Stripes_3.jpg,Blue_Plus_Dots_1.jpg,left,1428.8349999696948,true,NA,true
arXFqsPc,3oplmf3ev80afezcyc4phujqmmslnu,3ymtujh0dwtez3v5giwmtwjz2hut4n,arXFqsPc,2020-0188,2020-11-17,06:56:17,07:15:46,NA,incomplete,14,number,0,1,right,Green_Circle_Chess_2.jpg,Green_Triangle_Grid_4.jpg,Blue_Plus_Stripes_2.jpg,right,1525.9550000191666,true,NA,true
arXFqsPc,3oplmf3ev80afezcyc4phujqmmslnu,3ymtujh0dwtez3v5giwmtwjz2hut4n,arXFqsPc,2020-0188,2020-11-17,06:56:17,07:15:46,NA,incomplete,15,number,0,1,right,Green_Triangle_Dots_4.jpg,Green_Circle_Grid_1.jpg,Red_Star_Stripes_4.jpg,right,814.6050000214018,true,NA,true
arXFqsPc,3oplmf3ev80afezcyc4phujqmmslnu,3ymtujh0dwtez3v5giwmtwjz2hut4n,arXFqsPc,2020-0188,2020-11-17,06:56:17,07:15:46,NA,incomplete,16,number,0,1,left,Green_Plus_Dots_1.jpg,Purple_Triangle_Stripes_1.jpg,Green_Circle_Grid_3.jpg,left,892.2550000133924,true,NA,true
arXFqsPc,3oplmf3ev80afezcyc4phujqmmslnu,3ymtujh0dwtez3v5giwmtwjz2hut4n,arXFqsPc,2020-0188,2020-11-17,06:56:17,07:15:46,NA,incomplete,17,number,0,1,right,Blue_Star_Dots_4.jpg,Blue_Triangle_Chess_1.jpg,Red_Circle_Grid_4.jpg,right,743.5800000093877,true,NA,true
arXFqsPc,3oplmf3ev80afezcyc4phujqmmslnu,3ymtujh0dwtez3v5giwmtwjz2hut4n,arXFqsPc,2020-0188,2020-11-17,06:56:17,07:15:46,NA,incomplete,18,number,0,1,left,Red_Triangle_Stripes_2.jpg,Purple_Star_Chess_2.jpg,Red_Circle_Grid_3.jpg,left,873.810000019148,true,NA,true
arXFqsPc,3oplmf3ev80afezcyc4phujqmmslnu,3ymtujh0dwtez3v5giwmtwjz2hut4n,arXFqsPc,2020-0188,2020-11-17,06:56:17,07:15:46,NA,incomplete,19,number,0,1,left,Green_Star_Grid_2.jpg,Blue_Circle_Chess_2.jpg,Green_Triangle_Dots_3.jpg,left,981.3299999805167,true,NA,true
arXFqsPc,3oplmf3ev80afezcyc4phujqmmslnu,3ymtujh0dwtez3v5giwmtwjz2hut4n,arXFqsPc,2020-0188,2020-11-17,06:56:17,07:15:46,NA,incomplete,20,color,1,1,right,Green_Plus_Stripes_2.jpg,Purple_Circle_Grid_2.jpg,Green_Triangle_Dots_1.jpg,right,1244.8899999726564,true,NA,true
arXFqsPc,3oplmf3ev80afezcyc4phujqmmslnu,3ymtujh0dwtez3v5giwmtwjz2hut4n,arXFqsPc,2020-0188,2020-11-17,06:56:17,07:15:46,NA,incomplete,21,color,1,1,left,Blue_Circle_Dots_4.jpg,Blue_Star_Chess_2.jpg,Green_Triangle_Grid_4.jpg,left,1200.4699999815784,true,NA,true
arXFqsPc,3oplmf3ev80afezcyc4phujqmmslnu,3ymtujh0dwtez3v5giwmtwjz2hut4n,arXFqsPc,2020-0188,2020-11-17,06:56:17,07:15:46,NA,incomplete,22,color,1,0,right,Red_Circle_Grid_1.jpg,Purple_Triangle_Stripes_1.jpg,Red_Plus_Chess_3.jpg,right,882.6000000117347,true,NA,true
arXFqsPc,3oplmf3ev80afezcyc4phujqmmslnu,3ymtujh0dwtez3v5giwmtwjz2hut4n,arXFqsPc,2020-0188,2020-11-17,06:56:17,07:15:46,NA,incomplete,23,color,1,1,left,Green_Star_Chess_1.jpg,Green_Plus_Dots_4.jpg,Purple_Circle_Grid_1.jpg,left,1168.1600000010803,true,NA,true
arXFqsPc,3oplmf3ev80afezcyc4phujqmmslnu,3ymtujh0dwtez3v5giwmtwjz2hut4n,arXFqsPc,2020-0188,2020-11-17,06:56:17,07:15:46,NA,incomplete,24,color,1,0,right,Red_Star_Stripes_4.jpg,Green_Circle_Grid_4.jpg,Red_Triangle_Dots_1.jpg,right,1237.8850000095554,true,NA,true
arXFqsPc,3oplmf3ev80afezcyc4phujqmmslnu,3ymtujh0dwtez3v5giwmtwjz2hut4n,arXFqsPc,2020-0188,2020-11-17,06:56:17,07:15:46,NA,incomplete,25,color,1,0,right,Red_Triangle_Grid_3.jpg,Blue_Star_Stripes_3.jpg,Red_Circle_Chess_2.jpg,right,1077.994999999646,true,NA,true
arXFqsPc,3oplmf3ev80afezcyc4phujqmmslnu,3ymtujh0dwtez3v5giwmtwjz2hut4n,arXFqsPc,2020-0188,2020-11-17,06:56:17,07:15:46,NA,incomplete,26,color,1,1,right,Purple_Triangle_Chess_1.jpg,Red_Circle_Dots_1.jpg,Purple_Star_Stripes_4.jpg,right,1586.5099999937229,true,NA,true
arXFqsPc,3oplmf3ev80afezcyc4phujqmmslnu,3ymtujh0dwtez3v5giwmtwjz2hut4n,arXFqsPc,2020-0188,2020-11-17,06:56:17,07:15:46,NA,incomplete,27,color,1,1,right,Blue_Star_Grid_4.jpg,Green_Circle_Dots_4.jpg,Blue_Triangle_Chess_2.jpg,right,1170.1650000177324,true,NA,true
arXFqsPc,3oplmf3ev80afezcyc4phujqmmslnu,3ymtujh0dwtez3v5giwmtwjz2hut4n,arXFqsPc,2020-0188,2020-11-17,06:56:17,07:15:46,NA,incomplete,28,color,1,1,left,Blue_Plus_Dots_3.jpg,Blue_Triangle_Chess_4.jpg,Green_Star_Grid_3.jpg,left,1421.4600000414066,true,NA,true
arXFqsPc,3oplmf3ev80afezcyc4phujqmmslnu,3ymtujh0dwtez3v5giwmtwjz2hut4n,arXFqsPc,2020-0188,2020-11-17,06:56:17,07:15:46,NA,incomplete,29,color,1,1,left,Red_Circle_Chess_1.jpg,Red_Triangle_Dots_4.jpg,Blue_Plus_Grid_1.jpg,right,1286.2950000562705,false,NA,true
arXFqsPc,3oplmf3ev80afezcyc4phujqmmslnu,3ymtujh0dwtez3v5giwmtwjz2hut4n,arXFqsPc,2020-0188,2020-11-17,06:56:17,07:15:46,NA,incomplete,30,color,1,0,right,Purple_Plus_Stripes_1.jpg,Red_Circle_Grid_1.jpg,Purple_Triangle_Chess_2.jpg,right,1297.740000009071,true,NA,true
arXFqsPc,3oplmf3ev80afezcyc4phujqmmslnu,3ymtujh0dwtez3v5giwmtwjz2hut4n,arXFqsPc,2020-0188,2020-11-17,06:56:17,07:15:46,NA,incomplete,31,color,1,1,right,Green_Triangle_Grid_2.jpg,Purple_Plus_Chess_2.jpg,Green_Star_Stripes_4.jpg,right,998.2849999796599,true,NA,true
arXFqsPc,3oplmf3ev80afezcyc4phujqmmslnu,3ymtujh0dwtez3v5giwmtwjz2hut4n,arXFqsPc,2020-0188,2020-11-17,06:56:17,07:15:46,NA,incomplete,32,color,1,1,right,Red_Triangle_Grid_3.jpg,Blue_Circle_Chess_3.jpg,Red_Plus_Stripes_1.jpg,right,1064.745000039693,true,NA,true
arXFqsPc,3oplmf3ev80afezcyc4phujqmmslnu,3ymtujh0dwtez3v5giwmtwjz2hut4n,arXFqsPc,2020-0188,2020-11-17,06:56:17,07:15:46,NA,incomplete,33,color,1,0,left,Blue_Triangle_Chess_4.jpg,Blue_Star_Stripes_2.jpg,Green_Circle_Dots_4.jpg,left,941.2049999809824,true,NA,true
arXFqsPc,3oplmf3ev80afezcyc4phujqmmslnu,3ymtujh0dwtez3v5giwmtwjz2hut4n,arXFqsPc,2020-0188,2020-11-17,06:56:17,07:15:46,NA,incomplete,34,color,1,1,left,Purple_Plus_Dots_3.jpg,Purple_Circle_Chess_2.jpg,Red_Triangle_Grid_3.jpg,left,971.1000000243075,true,NA,true
arXFqsPc,3oplmf3ev80afezcyc4phujqmmslnu,3ymtujh0dwtez3v5giwmtwjz2hut4n,arXFqsPc,2020-0188,2020-11-17,06:56:17,07:15:46,NA,incomplete,35,color,1,1,right,Green_Star_Stripes_4.jpg,Red_Circle_Chess_4.jpg,Green_Plus_Dots_3.jpg,right,1245.145000051707,true,NA,true
arXFqsPc,3oplmf3ev80afezcyc4phujqmmslnu,3ymtujh0dwtez3v5giwmtwjz2hut4n,arXFqsPc,2020-0188,2020-11-17,06:56:17,07:15:46,NA,incomplete,36,color,1,1,left,Red_Triangle_Grid_3.jpg,Red_Circle_Stripes_2.jpg,Green_Star_Chess_3.jpg,left,710.1450000191107,true,NA,true
arXFqsPc,3oplmf3ev80afezcyc4phujqmmslnu,3ymtujh0dwtez3v5giwmtwjz2hut4n,arXFqsPc,2020-0188,2020-11-17,06:56:17,07:15:46,NA,incomplete,37,color,1,0,right,Green_Star_Dots_2.jpg,Blue_Plus_Grid_2.jpg,Green_Circle_Chess_1.jpg,right,1034.384999948088,true,NA,true
arXFqsPc,3oplmf3ev80afezcyc4phujqmmslnu,3ymtujh0dwtez3v5giwmtwjz2hut4n,arXFqsPc,2020-0188,2020-11-17,06:56:17,07:15:46,NA,incomplete,38,color,1,1,left,Blue_Triangle_Stripes_3.jpg,Blue_Circle_Grid_1.jpg,Purple_Star_Dots_3.jpg,left,1167.7799999597482,true,NA,true
arXFqsPc,3oplmf3ev80afezcyc4phujqmmslnu,3ymtujh0dwtez3v5giwmtwjz2hut4n,arXFqsPc,2020-0188,2020-11-17,06:56:17,07:15:46,NA,incomplete,39,color,1,1,right,Red_Star_Stripes_1.jpg,Blue_Plus_Chess_1.jpg,Red_Circle_Dots_2.jpg,right,1120.8649999462068,true,NA,true
arXFqsPc,3oplmf3ev80afezcyc4phujqmmslnu,3ymtujh0dwtez3v5giwmtwjz2hut4n,arXFqsPc,2020-0188,2020-11-17,06:56:17,07:15:46,NA,incomplete,0,number,0,1,right,Purple_Triangle_Stripes_2.jpg,Purple_Star_Grid_1.jpg,Red_Circle_Dots_2.jpg,left,1296.1900000227615,false,high,false
arXFqsPc,3oplmf3ev80afezcyc4phujqmmslnu,3ymtujh0dwtez3v5giwmtwjz2hut4n,arXFqsPc,2020-0188,2020-11-17,06:56:17,07:15:46,NA,incomplete,1,number,0,1,left,Blue_Plus_Stripes_3.jpg,Purple_Star_Grid_3.jpg,Blue_Circle_Dots_1.jpg,right,1104.174999985844,false,high,false
arXFqsPc,3oplmf3ev80afezcyc4phujqmmslnu,3ymtujh0dwtez3v5giwmtwjz2hut4n,arXFqsPc,2020-0188,2020-11-17,06:56:17,07:15:46,NA,incomplete,2,number,0,0,left,Purple_Triangle_Grid_2.jpg,Red_Plus_Chess_2.jpg,Purple_Circle_Stripes_3.jpg,left,980.039999994915,true,high,false
arXFqsPc,3oplmf3ev80afezcyc4phujqmmslnu,3ymtujh0dwtez3v5giwmtwjz2hut4n,arXFqsPc,2020-0188,2020-11-17,06:56:17,07:15:46,NA,incomplete,3,number,0,1,right,Blue_Star_Stripes_1.jpg,Blue_Circle_Grid_2.jpg,Purple_Triangle_Dots_1.jpg,left,991.1350000184029,false,high,false
arXFqsPc,3oplmf3ev80afezcyc4phujqmmslnu,3ymtujh0dwtez3v5giwmtwjz2hut4n,arXFqsPc,2020-0188,2020-11-17,06:56:17,07:15:46,NA,incomplete,4,number,0,1,right,Red_Circle_Dots_4.jpg,Red_Star_Stripes_3.jpg,Green_Triangle_Chess_4.jpg,right,1265.6300000380725,true,high,false
arXFqsPc,3oplmf3ev80afezcyc4phujqmmslnu,3ymtujh0dwtez3v5giwmtwjz2hut4n,arXFqsPc,2020-0188,2020-11-17,06:56:17,07:15:46,NA,incomplete,5,number,0,0,left,Blue_Plus_Grid_2.jpg,Red_Triangle_Stripes_2.jpg,Blue_Circle_Dots_3.jpg,left,806.8949999869801,true,high,false
arXFqsPc,3oplmf3ev80afezcyc4phujqmmslnu,3ymtujh0dwtez3v5giwmtwjz2hut4n,arXFqsPc,2020-0188,2020-11-17,06:56:17,07:15:46,NA,incomplete,6,number,0,1,right,Purple_Triangle_Dots_3.jpg,Purple_Plus_Grid_1.jpg,Green_Star_Stripes_3.jpg,left,1191.8399999849498,false,high,false
arXFqsPc,3oplmf3ev80afezcyc4phujqmmslnu,3ymtujh0dwtez3v5giwmtwjz2hut4n,arXFqsPc,2020-0188,2020-11-17,06:56:17,07:15:46,NA,incomplete,7,number,0,1,right,Blue_Circle_Chess_1.jpg,Blue_Triangle_Dots_2.jpg,Purple_Plus_Stripes_1.jpg,right,977.9299999936484,true,high,false
arXFqsPc,3oplmf3ev80afezcyc4phujqmmslnu,3ymtujh0dwtez3v5giwmtwjz2hut4n,arXFqsPc,2020-0188,2020-11-17,06:56:17,07:15:46,NA,incomplete,8,number,0,1,left,Blue_Triangle_Stripes_3.jpg,Purple_Star_Dots_3.jpg,Blue_Plus_Grid_4.jpg,left,1009.0699999709614,true,high,false
arXFqsPc,3oplmf3ev80afezcyc4phujqmmslnu,3ymtujh0dwtez3v5giwmtwjz2hut4n,arXFqsPc,2020-0188,2020-11-17,06:56:17,07:15:46,NA,incomplete,9,number,0,1,right,Red_Plus_Dots_1.jpg,Red_Star_Stripes_2.jpg,Green_Circle_Chess_1.jpg,right,1068.0299999658018,true,high,false
arXFqsPc,3oplmf3ev80afezcyc4phujqmmslnu,3ymtujh0dwtez3v5giwmtwjz2hut4n,arXFqsPc,2020-0188,2020-11-17,06:56:17,07:15:46,NA,incomplete,10,color,1,1,right,Red_Star_Stripes_4.jpg,Purple_Plus_Chess_4.jpg,Red_Circle_Dots_2.jpg,left,995.0749999843538,false,high,false
arXFqsPc,3oplmf3ev80afezcyc4phujqmmslnu,3ymtujh0dwtez3v5giwmtwjz2hut4n,arXFqsPc,2020-0188,2020-11-17,06:56:17,07:15:46,NA,incomplete,11,color,1,1,right,Red_Plus_Stripes_3.jpg,Green_Circle_Grid_3.jpg,Red_Triangle_Dots_4.jpg,right,1391.9450000394136,true,high,false
arXFqsPc,3oplmf3ev80afezcyc4phujqmmslnu,3ymtujh0dwtez3v5giwmtwjz2hut4n,arXFqsPc,2020-0188,2020-11-17,06:56:17,07:15:46,NA,incomplete,12,color,1,1,left,Purple_Star_Grid_1.jpg,Purple_Circle_Dots_2.jpg,Blue_Triangle_Chess_1.jpg,right,962.5050000031479,false,high,false
arXFqsPc,3oplmf3ev80afezcyc4phujqmmslnu,3ymtujh0dwtez3v5giwmtwjz2hut4n,arXFqsPc,2020-0188,2020-11-17,06:56:17,07:15:46,NA,incomplete,13,color,1,1,left,Blue_Triangle_Stripes_4.jpg,Blue_Star_Grid_2.jpg,Red_Plus_Chess_4.jpg,right,1093.4750000014901,false,high,false
arXFqsPc,3oplmf3ev80afezcyc4phujqmmslnu,3ymtujh0dwtez3v5giwmtwjz2hut4n,arXFqsPc,2020-0188,2020-11-17,06:56:17,07:15:46,NA,incomplete,14,color,1,1,left,Red_Triangle_Chess_2.jpg,Red_Star_Grid_3.jpg,Green_Plus_Stripes_2.jpg,left,804.1299999458715,true,high,false
arXFqsPc,3oplmf3ev80afezcyc4phujqmmslnu,3ymtujh0dwtez3v5giwmtwjz2hut4n,arXFqsPc,2020-0188,2020-11-17,06:56:17,07:15:46,NA,incomplete,15,color,1,1,right,Green_Plus_Grid_2.jpg,Red_Star_Dots_2.jpg,Green_Triangle_Chess_4.jpg,right,787.2199999983422,true,high,false
arXFqsPc,3oplmf3ev80afezcyc4phujqmmslnu,3ymtujh0dwtez3v5giwmtwjz2hut4n,arXFqsPc,2020-0188,2020-11-17,06:56:17,07:15:46,NA,incomplete,16,color,1,1,left,Purple_Triangle_Grid_2.jpg,Purple_Circle_Stripes_3.jpg,Green_Plus_Dots_2.jpg,left,1469.4499999750406,true,high,false
arXFqsPc,3oplmf3ev80afezcyc4phujqmmslnu,3ymtujh0dwtez3v5giwmtwjz2hut4n,arXFqsPc,2020-0188,2020-11-17,06:56:17,07:15:46,NA,incomplete,17,color,1,1,left,Red_Plus_Stripes_4.jpg,Red_Triangle_Chess_2.jpg,Green_Star_Grid_4.jpg,left,942.1150000416674,true,high,false
arXFqsPc,3oplmf3ev80afezcyc4phujqmmslnu,3ymtujh0dwtez3v5giwmtwjz2hut4n,arXFqsPc,2020-0188,2020-11-17,06:56:17,07:15:46,NA,incomplete,18,color,1,0,left,Blue_Plus_Grid_3.jpg,Blue_Star_Dots_2.jpg,Purple_Circle_Stripes_3.jpg,left,1109.3150000087917,true,high,false
arXFqsPc,3oplmf3ev80afezcyc4phujqmmslnu,3ymtujh0dwtez3v5giwmtwjz2hut4n,arXFqsPc,2020-0188,2020-11-17,06:56:17,07:15:46,NA,incomplete,19,color,1,1,right,Blue_Circle_Stripes_2.jpg,Green_Star_Chess_2.jpg,Blue_Triangle_Dots_3.jpg,left,995.374999998603,false,high,false
arXFqsPc,3oplmf3ev80afezcyc4phujqmmslnu,3ymtujh0dwtez3v5giwmtwjz2hut4n,arXFqsPc,2020-0188,2020-11-17,06:56:17,07:15:46,NA,incomplete,20,number,0,1,left,Purple_Plus_Stripes_1.jpg,Blue_Star_Grid_1.jpg,Purple_Circle_Chess_3.jpg,right,724.7300000162795,false,high,false
arXFqsPc,3oplmf3ev80afezcyc4phujqmmslnu,3ymtujh0dwtez3v5giwmtwjz2hut4n,arXFqsPc,2020-0188,2020-11-17,06:56:17,07:15:46,NA,incomplete,21,number,0,1,left,Green_Plus_Stripes_4.jpg,Blue_Circle_Dots_4.jpg,Green_Star_Grid_3.jpg,left,1056.235000025481,true,high,false
arXFqsPc,3oplmf3ev80afezcyc4phujqmmslnu,3ymtujh0dwtez3v5giwmtwjz2hut4n,arXFqsPc,2020-0188,2020-11-17,06:56:17,07:15:46,NA,incomplete,22,number,0,0,right,Red_Circle_Stripes_2.jpg,Red_Plus_Grid_4.jpg,Purple_Triangle_Chess_2.jpg,right,881.5049999975599,true,high,false
arXFqsPc,3oplmf3ev80afezcyc4phujqmmslnu,3ymtujh0dwtez3v5giwmtwjz2hut4n,arXFqsPc,2020-0188,2020-11-17,06:56:17,07:15:46,NA,incomplete,23,number,0,1,left,Green_Plus_Dots_3.jpg,Purple_Triangle_Stripes_3.jpg,Green_Circle_Grid_4.jpg,left,1080.9850000077859,true,high,false
arXFqsPc,3oplmf3ev80afezcyc4phujqmmslnu,3ymtujh0dwtez3v5giwmtwjz2hut4n,arXFqsPc,2020-0188,2020-11-17,06:56:17,07:15:46,NA,incomplete,24,number,0,1,left,Blue_Star_Stripes_3.jpg,Red_Triangle_Dots_3.jpg,Blue_Circle_Grid_4.jpg,left,993.7250000075437,true,high,false
arXFqsPc,3oplmf3ev80afezcyc4phujqmmslnu,3ymtujh0dwtez3v5giwmtwjz2hut4n,arXFqsPc,2020-0188,2020-11-17,06:56:17,07:15:46,NA,incomplete,25,number,0,1,left,Blue_Plus_Stripes_1.jpg,Green_Star_Dots_1.jpg,Blue_Circle_Grid_3.jpg,left,858.6099999956787,true,high,false
arXFqsPc,3oplmf3ev80afezcyc4phujqmmslnu,3ymtujh0dwtez3v5giwmtwjz2hut4n,arXFqsPc,2020-0188,2020-11-17,06:56:17,07:15:46,NA,incomplete,26,number,0,1,right,Red_Star_Dots_3.jpg,Red_Plus_Stripes_2.jpg,Purple_Triangle_Chess_3.jpg,right,1059.2600000090897,true,high,false
arXFqsPc,3oplmf3ev80afezcyc4phujqmmslnu,3ymtujh0dwtez3v5giwmtwjz2hut4n,arXFqsPc,2020-0188,2020-11-17,06:56:17,07:15:46,NA,incomplete,27,number,0,0,right,Blue_Circle_Stripes_1.jpg,Blue_Plus_Grid_2.jpg,Red_Triangle_Chess_1.jpg,right,911.3899999647401,true,high,false
arXFqsPc,3oplmf3ev80afezcyc4phujqmmslnu,3ymtujh0dwtez3v5giwmtwjz2hut4n,arXFqsPc,2020-0188,2020-11-17,06:56:17,07:15:46,NA,incomplete,28,number,0,1,left,Purple_Circle_Chess_4.jpg,Blue_Triangle_Stripes_4.jpg,Purple_Star_Dots_1.jpg,right,961.7899999720976,false,high,false
arXFqsPc,3oplmf3ev80afezcyc4phujqmmslnu,3ymtujh0dwtez3v5giwmtwjz2hut4n,arXFqsPc,2020-0188,2020-11-17,06:56:17,07:15:46,NA,incomplete,29,number,0,1,right,Purple_Star_Grid_2.jpg,Purple_Triangle_Dots_3.jpg,Red_Circle_Chess_2.jpg,right,1017.4199999892153,true,high,false
arXFqsPc,3oplmf3ev80afezcyc4phujqmmslnu,3ymtujh0dwtez3v5giwmtwjz2hut4n,arXFqsPc,2020-0188,2020-11-17,06:56:17,07:15:46,NA,incomplete,30,color,1,1,right,Green_Triangle_Chess_2.jpg,Purple_Circle_Dots_2.jpg,Green_Star_Grid_4.jpg,left,1041.849999979604,false,high,false
arXFqsPc,3oplmf3ev80afezcyc4phujqmmslnu,3ymtujh0dwtez3v5giwmtwjz2hut4n,arXFqsPc,2020-0188,2020-11-17,06:56:17,07:15:46,NA,incomplete,31,color,1,1,right,Green_Circle_Dots_2.jpg,Blue_Triangle_Stripes_2.jpg,Green_Star_Grid_1.jpg,left,1036.1099999863654,false,high,false
arXFqsPc,3oplmf3ev80afezcyc4phujqmmslnu,3ymtujh0dwtez3v5giwmtwjz2hut4n,arXFqsPc,2020-0188,2020-11-17,06:56:17,07:15:46,NA,incomplete,32,color,1,1,right,Red_Circle_Dots_4.jpg,Blue_Star_Chess_4.jpg,Red_Triangle_Stripes_1.jpg,right,864.449999993667,true,high,false
arXFqsPc,3oplmf3ev80afezcyc4phujqmmslnu,3ymtujh0dwtez3v5giwmtwjz2hut4n,arXFqsPc,2020-0188,2020-11-17,06:56:17,07:15:46,NA,incomplete,33,color,1,0,right,Red_Star_Grid_1.jpg,Green_Triangle_Dots_1.jpg,Red_Circle_Stripes_3.jpg,right,1644.205000018701,true,high,false
arXFqsPc,3oplmf3ev80afezcyc4phujqmmslnu,3ymtujh0dwtez3v5giwmtwjz2hut4n,arXFqsPc,2020-0188,2020-11-17,06:56:17,07:15:46,NA,incomplete,34,color,1,0,left,Blue_Plus_Grid_4.jpg,Blue_Triangle_Chess_2.jpg,Purple_Circle_Stripes_4.jpg,right,1001.4099999680184,false,high,false
arXFqsPc,3oplmf3ev80afezcyc4phujqmmslnu,3ymtujh0dwtez3v5giwmtwjz2hut4n,arXFqsPc,2020-0188,2020-11-17,06:56:17,07:15:46,NA,incomplete,35,color,1,1,right,Blue_Triangle_Stripes_3.jpg,Red_Star_Grid_3.jpg,Blue_Circle_Chess_4.jpg,left,879.8349999706261,false,high,false
arXFqsPc,3oplmf3ev80afezcyc4phujqmmslnu,3ymtujh0dwtez3v5giwmtwjz2hut4n,arXFqsPc,2020-0188,2020-11-17,06:56:17,07:15:46,NA,incomplete,36,color,1,1,left,Green_Star_Stripes_4.jpg,Green_Plus_Grid_2.jpg,Purple_Triangle_Dots_4.jpg,right,1068.8300000037998,false,high,false
arXFqsPc,3oplmf3ev80afezcyc4phujqmmslnu,3ymtujh0dwtez3v5giwmtwjz2hut4n,arXFqsPc,2020-0188,2020-11-17,06:56:17,07:15:46,NA,incomplete,37,color,1,1,left,Red_Circle_Chess_4.jpg,Red_Plus_Stripes_1.jpg,Green_Star_Grid_4.jpg,left,832.7350000035949,true,high,false
arXFqsPc,3oplmf3ev80afezcyc4phujqmmslnu,3ymtujh0dwtez3v5giwmtwjz2hut4n,arXFqsPc,2020-0188,2020-11-17,06:56:17,07:15:46,NA,incomplete,38,color,1,1,right,Purple_Plus_Stripes_2.jpg,Red_Star_Dots_2.jpg,Purple_Triangle_Chess_4.jpg,right,1091.4900000207126,true,high,false
arXFqsPc,3oplmf3ev80afezcyc4phujqmmslnu,3ymtujh0dwtez3v5giwmtwjz2hut4n,arXFqsPc,2020-0188,2020-11-17,06:56:17,07:15:46,NA,incomplete,39,color,1,1,right,Green_Triangle_Stripes_1.jpg,Blue_Circle_Dots_1.jpg,Green_Plus_Chess_2.jpg,right,770.9499999764375,true,high,false
arXFqsPc,3oplmf3ev80afezcyc4phujqmmslnu,3ymtujh0dwtez3v5giwmtwjz2hut4n,arXFqsPc,2020-0188,2020-11-17,06:56:17,07:15:46,NA,incomplete,40,number,0,1,right,Purple_Star_Dots_3.jpg,Purple_Plus_Stripes_2.jpg,Red_Circle_Chess_3.jpg,left,1265.7400000025518,false,high,false
arXFqsPc,3oplmf3ev80afezcyc4phujqmmslnu,3ymtujh0dwtez3v5giwmtwjz2hut4n,arXFqsPc,2020-0188,2020-11-17,06:56:17,07:15:46,NA,incomplete,41,number,0,1,left,Blue_Circle_Dots_3.jpg,Green_Plus_Grid_3.jpg,Blue_Triangle_Chess_2.jpg,left,1259.829999995418,true,high,false
arXFqsPc,3oplmf3ev80afezcyc4phujqmmslnu,3ymtujh0dwtez3v5giwmtwjz2hut4n,arXFqsPc,2020-0188,2020-11-17,06:56:17,07:15:46,NA,incomplete,42,number,0,1,left,Green_Plus_Stripes_4.jpg,Purple_Circle_Chess_4.jpg,Green_Triangle_Dots_1.jpg,left,882.8600000124425,true,high,false
arXFqsPc,3oplmf3ev80afezcyc4phujqmmslnu,3ymtujh0dwtez3v5giwmtwjz2hut4n,arXFqsPc,2020-0188,2020-11-17,06:56:17,07:15:46,NA,incomplete,43,number,0,1,right,Purple_Star_Stripes_3.jpg,Purple_Plus_Chess_2.jpg,Red_Circle_Grid_3.jpg,right,844.0699999919161,true,high,false
arXFqsPc,3oplmf3ev80afezcyc4phujqmmslnu,3ymtujh0dwtez3v5giwmtwjz2hut4n,arXFqsPc,2020-0188,2020-11-17,06:56:17,07:15:46,NA,incomplete,44,number,0,1,left,Blue_Triangle_Stripes_3.jpg,Green_Plus_Chess_3.jpg,Blue_Circle_Dots_4.jpg,left,826.8999999854714,true,high,false
arXFqsPc,3oplmf3ev80afezcyc4phujqmmslnu,3ymtujh0dwtez3v5giwmtwjz2hut4n,arXFqsPc,2020-0188,2020-11-17,06:56:17,07:15:46,NA,incomplete,45,number,0,1,left,Purple_Star_Chess_1.jpg,Green_Circle_Dots_1.jpg,Purple_Plus_Stripes_2.jpg,right,963.5349999880418,false,high,false
arXFqsPc,3oplmf3ev80afezcyc4phujqmmslnu,3ymtujh0dwtez3v5giwmtwjz2hut4n,arXFqsPc,2020-0188,2020-11-17,06:56:17,07:15:46,NA,incomplete,46,number,0,1,left,Green_Circle_Chess_3.jpg,Blue_Triangle_Dots_3.jpg,Green_Star_Stripes_2.jpg,left,979.7649999964051,true,high,false
arXFqsPc,3oplmf3ev80afezcyc4phujqmmslnu,3ymtujh0dwtez3v5giwmtwjz2hut4n,arXFqsPc,2020-0188,2020-11-17,06:56:17,07:15:46,NA,incomplete,47,number,0,0,left,Purple_Triangle_Dots_4.jpg,Blue_Plus_Chess_4.jpg,Purple_Star_Stripes_2.jpg,left,1039.1649999655783,true,high,false
arXFqsPc,3oplmf3ev80afezcyc4phujqmmslnu,3ymtujh0dwtez3v5giwmtwjz2hut4n,arXFqsPc,2020-0188,2020-11-17,06:56:17,07:15:46,NA,incomplete,48,number,0,1,right,Purple_Plus_Stripes_4.jpg,Purple_Star_Grid_2.jpg,Blue_Circle_Chess_4.jpg,left,763.730000006035,false,high,false
arXFqsPc,3oplmf3ev80afezcyc4phujqmmslnu,3ymtujh0dwtez3v5giwmtwjz2hut4n,arXFqsPc,2020-0188,2020-11-17,06:56:17,07:15:46,NA,incomplete,49,number,0,1,left,Green_Circle_Chess_1.jpg,Purple_Plus_Stripes_1.jpg,Green_Triangle_Dots_2.jpg,left,872.7100000251085,true,high,false
arXFqsPc,3oplmf3ev80afezcyc4phujqmmslnu,3ymtujh0dwtez3v5giwmtwjz2hut4n,arXFqsPc,2020-0188,2020-11-17,06:56:17,07:15:46,NA,incomplete,50,color,1,1,left,Purple_Circle_Stripes_2.jpg,Purple_Triangle_Chess_3.jpg,Red_Star_Grid_2.jpg,right,1092.5799999968149,false,high,false
arXFqsPc,3oplmf3ev80afezcyc4phujqmmslnu,3ymtujh0dwtez3v5giwmtwjz2hut4n,arXFqsPc,2020-0188,2020-11-17,06:56:17,07:15:46,NA,incomplete,51,color,1,1,left,Blue_Triangle_Dots_1.jpg,Blue_Star_Chess_3.jpg,Purple_Circle_Stripes_1.jpg,left,815.694999997504,true,high,false
arXFqsPc,3oplmf3ev80afezcyc4phujqmmslnu,3ymtujh0dwtez3v5giwmtwjz2hut4n,arXFqsPc,2020-0188,2020-11-17,06:56:17,07:15:46,NA,incomplete,52,color,1,1,right,Purple_Triangle_Chess_4.jpg,Blue_Circle_Grid_4.jpg,Purple_Plus_Dots_3.jpg,right,1231.3200000207871,true,high,false
arXFqsPc,3oplmf3ev80afezcyc4phujqmmslnu,3ymtujh0dwtez3v5giwmtwjz2hut4n,arXFqsPc,2020-0188,2020-11-17,06:56:17,07:15:46,NA,incomplete,53,color,1,1,right,Blue_Plus_Grid_4.jpg,Purple_Circle_Chess_4.jpg,Blue_Star_Dots_2.jpg,right,874.5849999831989,true,high,false
arXFqsPc,3oplmf3ev80afezcyc4phujqmmslnu,3ymtujh0dwtez3v5giwmtwjz2hut4n,arXFqsPc,2020-0188,2020-11-17,06:56:17,07:15:46,NA,incomplete,54,color,1,0,right,Blue_Triangle_Grid_3.jpg,Red_Star_Stripes_3.jpg,Blue_Plus_Chess_4.jpg,right,848.0100000160746,true,high,false
arXFqsPc,3oplmf3ev80afezcyc4phujqmmslnu,3ymtujh0dwtez3v5giwmtwjz2hut4n,arXFqsPc,2020-0188,2020-11-17,06:56:17,07:15:46,NA,incomplete,55,color,1,1,right,Red_Triangle_Dots_4.jpg,Green_Star_Grid_4.jpg,Red_Circle_Chess_2.jpg,left,927.689999982249,false,high,false
arXFqsPc,3oplmf3ev80afezcyc4phujqmmslnu,3ymtujh0dwtez3v5giwmtwjz2hut4n,arXFqsPc,2020-0188,2020-11-17,06:56:17,07:15:46,NA,incomplete,56,color,1,1,right,Red_Circle_Dots_3.jpg,Green_Plus_Grid_3.jpg,Red_Triangle_Stripes_4.jpg,right,914.3050000420772,true,high,false
arXFqsPc,3oplmf3ev80afezcyc4phujqmmslnu,3ymtujh0dwtez3v5giwmtwjz2hut4n,arXFqsPc,2020-0188,2020-11-17,06:56:17,07:15:46,NA,incomplete,57,color,1,1,left,Blue_Triangle_Chess_2.jpg,Blue_Star_Grid_3.jpg,Purple_Plus_Dots_2.jpg,left,1181.9399999803863,true,high,false
arXFqsPc,3oplmf3ev80afezcyc4phujqmmslnu,3ymtujh0dwtez3v5giwmtwjz2hut4n,arXFqsPc,2020-0188,2020-11-17,06:56:17,07:15:46,NA,incomplete,58,color,1,1,right,Green_Plus_Grid_4.jpg,Purple_Circle_Dots_4.jpg,Green_Triangle_Chess_1.jpg,right,720.8150000078604,true,high,false
arXFqsPc,3oplmf3ev80afezcyc4phujqmmslnu,3ymtujh0dwtez3v5giwmtwjz2hut4n,arXFqsPc,2020-0188,2020-11-17,06:56:17,07:15:46,NA,incomplete,59,color,1,1,right,Purple_Circle_Dots_3.jpg,Blue_Star_Grid_3.jpg,Purple_Triangle_Chess_2.jpg,right,743.2450000196695,true,high,false
arXFqsPc,3oplmf3ev80afezcyc4phujqmmslnu,3ymtujh0dwtez3v5giwmtwjz2hut4n,arXFqsPc,2020-0188,2020-11-17,06:56:17,07:15:46,NA,incomplete,60,number,0,1,right,Green_Circle_Stripes_4.jpg,Green_Star_Grid_3.jpg,Red_Plus_Chess_4.jpg,left,644.1800000029616,false,high,false
arXFqsPc,3oplmf3ev80afezcyc4phujqmmslnu,3ymtujh0dwtez3v5giwmtwjz2hut4n,arXFqsPc,2020-0188,2020-11-17,06:56:17,07:15:46,NA,incomplete,61,number,0,1,left,Red_Circle_Grid_2.jpg,Purple_Triangle_Stripes_2.jpg,Red_Star_Chess_4.jpg,left,848.4600000083447,true,high,false
arXFqsPc,3oplmf3ev80afezcyc4phujqmmslnu,3ymtujh0dwtez3v5giwmtwjz2hut4n,arXFqsPc,2020-0188,2020-11-17,06:56:17,07:15:46,NA,incomplete,62,number,0,0,left,Green_Star_Dots_3.jpg,Purple_Plus_Stripes_3.jpg,Green_Triangle_Grid_2.jpg,left,1183.9000000036322,true,high,false
arXFqsPc,3oplmf3ev80afezcyc4phujqmmslnu,3ymtujh0dwtez3v5giwmtwjz2hut4n,arXFqsPc,2020-0188,2020-11-17,06:56:17,07:15:46,NA,incomplete,63,number,0,1,right,Purple_Circle_Stripes_1.jpg,Purple_Triangle_Chess_4.jpg,Red_Plus_Dots_1.jpg,right,1323.644999996759,true,high,false
arXFqsPc,3oplmf3ev80afezcyc4phujqmmslnu,3ymtujh0dwtez3v5giwmtwjz2hut4n,arXFqsPc,2020-0188,2020-11-17,06:56:17,07:15:46,NA,incomplete,64,number,0,0,left,Green_Triangle_Stripes_3.jpg,Blue_Star_Grid_3.jpg,Green_Plus_Dots_2.jpg,left,1017.6000000210479,true,high,false
arXFqsPc,3oplmf3ev80afezcyc4phujqmmslnu,3ymtujh0dwtez3v5giwmtwjz2hut4n,arXFqsPc,2020-0188,2020-11-17,06:56:17,07:15:46,NA,incomplete,65,number,0,0,right,Red_Star_Chess_1.jpg,Red_Plus_Dots_3.jpg,Green_Triangle_Grid_1.jpg,left,889.1049999510869,false,high,false
arXFqsPc,3oplmf3ev80afezcyc4phujqmmslnu,3ymtujh0dwtez3v5giwmtwjz2hut4n,arXFqsPc,2020-0188,2020-11-17,06:56:17,07:15:46,NA,incomplete,66,number,0,1,right,Red_Triangle_Stripes_1.jpg,Red_Star_Grid_3.jpg,Blue_Circle_Chess_1.jpg,right,752.4149999953806,true,high,false
arXFqsPc,3oplmf3ev80afezcyc4phujqmmslnu,3ymtujh0dwtez3v5giwmtwjz2hut4n,arXFqsPc,2020-0188,2020-11-17,06:56:17,07:15:46,NA,incomplete,67,number,0,1,right,Green_Plus_Grid_1.jpg,Green_Triangle_Dots_3.jpg,Purple_Star_Stripes_1.jpg,right,919.9249999946915,true,high,false
arXFqsPc,3oplmf3ev80afezcyc4phujqmmslnu,3ymtujh0dwtez3v5giwmtwjz2hut4n,arXFqsPc,2020-0188,2020-11-17,06:56:17,07:15:46,NA,incomplete,68,number,0,1,right,Red_Star_Grid_3.jpg,Red_Plus_Stripes_4.jpg,Green_Circle_Chess_3.jpg,right,1391.704999958165,true,high,false
arXFqsPc,3oplmf3ev80afezcyc4phujqmmslnu,3ymtujh0dwtez3v5giwmtwjz2hut4n,arXFqsPc,2020-0188,2020-11-17,06:56:17,07:15:46,NA,incomplete,69,number,0,1,right,Green_Triangle_Dots_1.jpg,Green_Plus_Chess_2.jpg,Purple_Circle_Stripes_1.jpg,right,758.3299999823794,true,high,false
arXFqsPc,3oplmf3ev80afezcyc4phujqmmslnu,3ymtujh0dwtez3v5giwmtwjz2hut4n,arXFqsPc,2020-0188,2020-11-17,06:56:17,07:15:46,NA,incomplete,70,color,1,1,right,Green_Plus_Dots_4.jpg,Purple_Triangle_Stripes_4.jpg,Green_Circle_Chess_2.jpg,left,1547.4249999970198,false,high,false
arXFqsPc,3oplmf3ev80afezcyc4phujqmmslnu,3ymtujh0dwtez3v5giwmtwjz2hut4n,arXFqsPc,2020-0188,2020-11-17,06:56:17,07:15:46,NA,incomplete,71,color,1,1,right,Red_Star_Grid_2.jpg,Blue_Triangle_Chess_2.jpg,Red_Circle_Stripes_4.jpg,right,845.2350000152364,true,high,false
arXFqsPc,3oplmf3ev80afezcyc4phujqmmslnu,3ymtujh0dwtez3v5giwmtwjz2hut4n,arXFqsPc,2020-0188,2020-11-17,06:56:17,07:15:46,NA,incomplete,72,color,1,1,left,Red_Circle_Dots_4.jpg,Red_Plus_Grid_1.jpg,Green_Triangle_Stripes_4.jpg,right,850.0050000147894,false,high,false
arXFqsPc,3oplmf3ev80afezcyc4phujqmmslnu,3ymtujh0dwtez3v5giwmtwjz2hut4n,arXFqsPc,2020-0188,2020-11-17,06:56:17,07:15:46,NA,incomplete,73,color,1,1,right,Blue_Triangle_Stripes_4.jpg,Green_Plus_Chess_4.jpg,Blue_Circle_Grid_2.jpg,right,909.5249999663793,true,high,false
arXFqsPc,3oplmf3ev80afezcyc4phujqmmslnu,3ymtujh0dwtez3v5giwmtwjz2hut4n,arXFqsPc,2020-0188,2020-11-17,06:56:17,07:15:46,NA,incomplete,74,color,1,0,right,Purple_Circle_Chess_2.jpg,Red_Star_Stripes_2.jpg,Purple_Plus_Grid_1.jpg,right,984.2550000175834,true,high,false
arXFqsPc,3oplmf3ev80afezcyc4phujqmmslnu,3ymtujh0dwtez3v5giwmtwjz2hut4n,arXFqsPc,2020-0188,2020-11-17,06:56:17,07:15:46,NA,incomplete,75,color,1,1,left,Red_Star_Stripes_3.jpg,Red_Plus_Dots_1.jpg,Purple_Circle_Grid_3.jpg,right,861.44999996759,false,high,false
arXFqsPc,3oplmf3ev80afezcyc4phujqmmslnu,3ymtujh0dwtez3v5giwmtwjz2hut4n,arXFqsPc,2020-0188,2020-11-17,06:56:17,07:15:46,NA,incomplete,76,color,1,0,left,Blue_Star_Dots_2.jpg,Blue_Circle_Grid_1.jpg,Red_Plus_Chess_2.jpg,left,1204.1299999691546,true,high,false
arXFqsPc,3oplmf3ev80afezcyc4phujqmmslnu,3ymtujh0dwtez3v5giwmtwjz2hut4n,arXFqsPc,2020-0188,2020-11-17,06:56:17,07:15:46,NA,incomplete,77,color,1,1,left,Green_Circle_Stripes_3.jpg,Green_Star_Grid_1.jpg,Purple_Triangle_Dots_3.jpg,left,854.8549999832176,true,high,false
arXFqsPc,3oplmf3ev80afezcyc4phujqmmslnu,3ymtujh0dwtez3v5giwmtwjz2hut4n,arXFqsPc,2020-0188,2020-11-17,06:56:17,07:15:46,NA,incomplete,78,color,1,1,left,Blue_Star_Stripes_2.jpg,Blue_Circle_Grid_1.jpg,Purple_Triangle_Chess_2.jpg,left,702.1650000242516,true,high,false
arXFqsPc,3oplmf3ev80afezcyc4phujqmmslnu,3ymtujh0dwtez3v5giwmtwjz2hut4n,arXFqsPc,2020-0188,2020-11-17,06:56:17,07:15:46,NA,incomplete,79,color,1,1,left,Blue_Circle_Dots_1.jpg,Blue_Plus_Stripes_3.jpg,Red_Star_Grid_1.jpg,left,691.640000033658,true,high,false
arXFqsPc,3oplmf3ev80afezcyc4phujqmmslnu,3ymtujh0dwtez3v5giwmtwjz2hut4n,arXFqsPc,2020-0188,2020-11-17,06:56:17,07:15:46,NA,incomplete,80,number,0,0,right,Purple_Star_Chess_3.jpg,Purple_Triangle_Dots_2.jpg,Red_Circle_Grid_3.jpg,left,860.8149999636225,false,high,false
arXFqsPc,3oplmf3ev80afezcyc4phujqmmslnu,3ymtujh0dwtez3v5giwmtwjz2hut4n,arXFqsPc,2020-0188,2020-11-17,06:56:17,07:15:46,NA,incomplete,81,number,0,1,left,Purple_Star_Dots_3.jpg,Red_Triangle_Grid_3.jpg,Purple_Circle_Chess_1.jpg,right,1018.2950000162236,false,high,false
arXFqsPc,3oplmf3ev80afezcyc4phujqmmslnu,3ymtujh0dwtez3v5giwmtwjz2hut4n,arXFqsPc,2020-0188,2020-11-17,06:56:17,07:15:46,NA,incomplete,82,number,0,1,right,Blue_Circle_Chess_3.jpg,Blue_Plus_Grid_1.jpg,Red_Star_Dots_3.jpg,right,935.0650000269525,true,high,false
arXFqsPc,3oplmf3ev80afezcyc4phujqmmslnu,3ymtujh0dwtez3v5giwmtwjz2hut4n,arXFqsPc,2020-0188,2020-11-17,06:56:17,07:15:46,NA,incomplete,83,number,0,1,right,Purple_Circle_Grid_1.jpg,Purple_Triangle_Chess_4.jpg,Green_Star_Stripes_1.jpg,right,1521.1949999793433,true,high,false
arXFqsPc,3oplmf3ev80afezcyc4phujqmmslnu,3ymtujh0dwtez3v5giwmtwjz2hut4n,arXFqsPc,2020-0188,2020-11-17,06:56:17,07:15:46,NA,incomplete,84,number,0,1,right,Red_Triangle_Grid_2.jpg,Red_Plus_Stripes_3.jpg,Blue_Star_Dots_2.jpg,right,977.4150000303052,true,high,false
arXFqsPc,3oplmf3ev80afezcyc4phujqmmslnu,3ymtujh0dwtez3v5giwmtwjz2hut4n,arXFqsPc,2020-0188,2020-11-17,06:56:17,07:15:46,NA,incomplete,85,number,0,1,left,Blue_Star_Chess_4.jpg,Green_Triangle_Stripes_4.jpg,Blue_Circle_Grid_2.jpg,left,841.4599999669008,true,high,false
arXFqsPc,3oplmf3ev80afezcyc4phujqmmslnu,3ymtujh0dwtez3v5giwmtwjz2hut4n,arXFqsPc,2020-0188,2020-11-17,06:56:17,07:15:46,NA,incomplete,86,number,0,1,right,Green_Star_Chess_3.jpg,Green_Triangle_Stripes_2.jpg,Blue_Circle_Dots_3.jpg,right,787.3250000411645,true,high,false
arXFqsPc,3oplmf3ev80afezcyc4phujqmmslnu,3ymtujh0dwtez3v5giwmtwjz2hut4n,arXFqsPc,2020-0188,2020-11-17,06:56:17,07:15:46,NA,incomplete,87,number,0,1,left,Purple_Plus_Grid_4.jpg,Red_Triangle_Chess_4.jpg,Purple_Circle_Dots_3.jpg,left,905.8199999853969,true,high,false
arXFqsPc,3oplmf3ev80afezcyc4phujqmmslnu,3ymtujh0dwtez3v5giwmtwjz2hut4n,arXFqsPc,2020-0188,2020-11-17,06:56:17,07:15:46,NA,incomplete,88,number,0,0,left,Green_Triangle_Chess_4.jpg,Purple_Circle_Grid_4.jpg,Green_Plus_Stripes_3.jpg,left,988.9699999475852,true,high,false
arXFqsPc,3oplmf3ev80afezcyc4phujqmmslnu,3ymtujh0dwtez3v5giwmtwjz2hut4n,arXFqsPc,2020-0188,2020-11-17,06:56:17,07:15:46,NA,incomplete,89,number,0,0,left,Red_Plus_Grid_4.jpg,Blue_Star_Stripes_4.jpg,Red_Triangle_Dots_2.jpg,right,725.0200000125915,false,high,false
arXFqsPc,3oplmf3ev80afezcyc4phujqmmslnu,3ymtujh0dwtez3v5giwmtwjz2hut4n,arXFqsPc,2020-0188,2020-11-17,06:56:17,07:15:46,NA,incomplete,90,color,1,1,right,Blue_Circle_Grid_3.jpg,Red_Triangle_Stripes_3.jpg,Blue_Star_Dots_4.jpg,right,565.4900000081398,true,high,false
arXFqsPc,3oplmf3ev80afezcyc4phujqmmslnu,3ymtujh0dwtez3v5giwmtwjz2hut4n,arXFqsPc,2020-0188,2020-11-17,06:56:17,07:15:46,NA,incomplete,91,color,1,1,left,Purple_Circle_Chess_2.jpg,Purple_Plus_Dots_3.jpg,Green_Star_Grid_2.jpg,left,887.2800000244752,true,high,false
arXFqsPc,3oplmf3ev80afezcyc4phujqmmslnu,3ymtujh0dwtez3v5giwmtwjz2hut4n,arXFqsPc,2020-0188,2020-11-17,06:56:17,07:15:46,NA,incomplete,92,color,1,1,left,Green_Star_Grid_4.jpg,Green_Plus_Chess_2.jpg,Blue_Circle_Dots_4.jpg,left,775.4049999639392,true,high,false
arXFqsPc,3oplmf3ev80afezcyc4phujqmmslnu,3ymtujh0dwtez3v5giwmtwjz2hut4n,arXFqsPc,2020-0188,2020-11-17,06:56:17,07:15:46,NA,incomplete,93,color,1,1,left,Red_Triangle_Dots_4.jpg,Red_Star_Chess_3.jpg,Green_Plus_Stripes_4.jpg,left,710.5299999821,true,high,false
arXFqsPc,3oplmf3ev80afezcyc4phujqmmslnu,3ymtujh0dwtez3v5giwmtwjz2hut4n,arXFqsPc,2020-0188,2020-11-17,06:56:17,07:15:46,NA,incomplete,94,color,1,1,right,Green_Circle_Dots_1.jpg,Blue_Triangle_Stripes_1.jpg,Green_Plus_Grid_2.jpg,right,558.7400000076741,true,high,false
arXFqsPc,3oplmf3ev80afezcyc4phujqmmslnu,3ymtujh0dwtez3v5giwmtwjz2hut4n,arXFqsPc,2020-0188,2020-11-17,06:56:17,07:15:46,NA,incomplete,95,color,1,1,right,Blue_Triangle_Chess_1.jpg,Green_Circle_Grid_1.jpg,Blue_Star_Dots_3.jpg,right,846.3099999935366,true,high,false
arXFqsPc,3oplmf3ev80afezcyc4phujqmmslnu,3ymtujh0dwtez3v5giwmtwjz2hut4n,arXFqsPc,2020-0188,2020-11-17,06:56:17,07:15:46,NA,incomplete,96,color,1,1,left,Green_Plus_Stripes_2.jpg,Green_Star_Dots_4.jpg,Purple_Circle_Chess_2.jpg,left,728.2350000459701,true,high,false
arXFqsPc,3oplmf3ev80afezcyc4phujqmmslnu,3ymtujh0dwtez3v5giwmtwjz2hut4n,arXFqsPc,2020-0188,2020-11-17,06:56:17,07:15:46,NA,incomplete,97,color,1,1,right,Purple_Plus_Stripes_1.jpg,Red_Triangle_Grid_1.jpg,Purple_Circle_Chess_3.jpg,right,821.5750000090338,true,high,false
arXFqsPc,3oplmf3ev80afezcyc4phujqmmslnu,3ymtujh0dwtez3v5giwmtwjz2hut4n,arXFqsPc,2020-0188,2020-11-17,06:56:17,07:15:46,NA,incomplete,98,color,1,0,right,Blue_Plus_Grid_4.jpg,Red_Circle_Stripes_4.jpg,Blue_Triangle_Chess_2.jpg,right,753.484999993816,true,high,false
arXFqsPc,3oplmf3ev80afezcyc4phujqmmslnu,3ymtujh0dwtez3v5giwmtwjz2hut4n,arXFqsPc,2020-0188,2020-11-17,06:56:17,07:15:46,NA,incomplete,99,color,1,1,right,Red_Circle_Chess_3.jpg,Green_Star_Dots_3.jpg,Red_Triangle_Stripes_2.jpg,left,1091.8049999745563,false,high,false
arXFqsPc,3oplmf3ev80afezcyc4phujqmmslnu,3ymtujh0dwtez3v5giwmtwjz2hut4n,arXFqsPc,2020-0188,2020-11-17,06:56:17,07:15:46,NA,incomplete,100,number,0,1,right,Purple_Star_Stripes_2.jpg,Purple_Circle_Chess_1.jpg,Blue_Triangle_Grid_2.jpg,left,765.5150000355206,false,high,false
arXFqsPc,3oplmf3ev80afezcyc4phujqmmslnu,3ymtujh0dwtez3v5giwmtwjz2hut4n,arXFqsPc,2020-0188,2020-11-17,06:56:17,07:15:46,NA,incomplete,101,number,0,0,right,Blue_Circle_Stripes_3.jpg,Blue_Star_Dots_4.jpg,Red_Plus_Chess_3.jpg,right,1085.7749999850057,true,high,false
arXFqsPc,3oplmf3ev80afezcyc4phujqmmslnu,3ymtujh0dwtez3v5giwmtwjz2hut4n,arXFqsPc,2020-0188,2020-11-17,06:56:17,07:15:46,NA,incomplete,102,number,0,0,right,Green_Triangle_Stripes_1.jpg,Green_Circle_Chess_4.jpg,Purple_Star_Grid_1.jpg,right,901.3300000224262,true,high,false
arXFqsPc,3oplmf3ev80afezcyc4phujqmmslnu,3ymtujh0dwtez3v5giwmtwjz2hut4n,arXFqsPc,2020-0188,2020-11-17,06:56:17,07:15:46,NA,incomplete,103,number,0,1,right,Red_Circle_Chess_1.jpg,Red_Triangle_Stripes_3.jpg,Blue_Plus_Dots_1.jpg,left,611.9000000180677,false,high,false
arXFqsPc,3oplmf3ev80afezcyc4phujqmmslnu,3ymtujh0dwtez3v5giwmtwjz2hut4n,arXFqsPc,2020-0188,2020-11-17,06:56:17,07:15:46,NA,incomplete,104,number,0,1,left,Red_Star_Grid_1.jpg,Green_Triangle_Dots_1.jpg,Red_Plus_Chess_4.jpg,right,1045.154999999795,false,high,false
arXFqsPc,3oplmf3ev80afezcyc4phujqmmslnu,3ymtujh0dwtez3v5giwmtwjz2hut4n,arXFqsPc,2020-0188,2020-11-17,06:56:17,07:15:46,NA,incomplete,105,number,0,0,left,Blue_Circle_Chess_2.jpg,Green_Triangle_Dots_2.jpg,Blue_Plus_Stripes_4.jpg,left,1168.999999994412,true,high,false
arXFqsPc,3oplmf3ev80afezcyc4phujqmmslnu,3ymtujh0dwtez3v5giwmtwjz2hut4n,arXFqsPc,2020-0188,2020-11-17,06:56:17,07:15:46,NA,incomplete,106,number,0,1,right,Blue_Plus_Chess_2.jpg,Blue_Star_Dots_4.jpg,Red_Triangle_Stripes_2.jpg,left,975.6550000165589,false,high,false
arXFqsPc,3oplmf3ev80afezcyc4phujqmmslnu,3ymtujh0dwtez3v5giwmtwjz2hut4n,arXFqsPc,2020-0188,2020-11-17,06:56:17,07:15:46,NA,incomplete,107,number,0,0,left,Green_Circle_Grid_4.jpg,Red_Triangle_Stripes_4.jpg,Green_Plus_Chess_2.jpg,left,836.1150000127964,true,high,false
arXFqsPc,3oplmf3ev80afezcyc4phujqmmslnu,3ymtujh0dwtez3v5giwmtwjz2hut4n,arXFqsPc,2020-0188,2020-11-17,06:56:17,07:15:46,NA,incomplete,108,number,0,1,left,Red_Plus_Stripes_2.jpg,Purple_Star_Chess_2.jpg,Red_Triangle_Dots_3.jpg,right,774.29500001017,false,high,false
arXFqsPc,3oplmf3ev80afezcyc4phujqmmslnu,3ymtujh0dwtez3v5giwmtwjz2hut4n,arXFqsPc,2020-0188,2020-11-17,06:56:17,07:15:46,NA,incomplete,109,number,0,1,left,Purple_Triangle_Grid_3.jpg,Red_Plus_Dots_3.jpg,Purple_Circle_Stripes_1.jpg,right,896.6050000162795,false,high,false
arXFqsPc,3oplmf3ev80afezcyc4phujqmmslnu,3ymtujh0dwtez3v5giwmtwjz2hut4n,arXFqsPc,2020-0188,2020-11-17,06:56:17,07:15:46,NA,incomplete,110,color,1,1,right,Red_Circle_Grid_1.jpg,Green_Star_Dots_1.jpg,Red_Triangle_Stripes_4.jpg,right,730.5300000007264,true,high,false
arXFqsPc,3oplmf3ev80afezcyc4phujqmmslnu,3ymtujh0dwtez3v5giwmtwjz2hut4n,arXFqsPc,2020-0188,2020-11-17,06:56:17,07:15:46,NA,incomplete,111,color,1,1,left,Blue_Star_Dots_4.jpg,Blue_Triangle_Grid_2.jpg,Green_Plus_Stripes_4.jpg,left,664.9300000281073,true,high,false
arXFqsPc,3oplmf3ev80afezcyc4phujqmmslnu,3ymtujh0dwtez3v5giwmtwjz2hut4n,arXFqsPc,2020-0188,2020-11-17,06:56:17,07:15:46,NA,incomplete,112,color,1,1,left,Red_Plus_Stripes_4.jpg,Red_Circle_Chess_2.jpg,Green_Triangle_Grid_4.jpg,left,638.0750000244007,true,high,false
arXFqsPc,3oplmf3ev80afezcyc4phujqmmslnu,3ymtujh0dwtez3v5giwmtwjz2hut4n,arXFqsPc,2020-0188,2020-11-17,06:56:17,07:15:46,NA,incomplete,113,color,1,1,right,Red_Circle_Chess_2.jpg,Purple_Plus_Stripes_2.jpg,Red_Star_Grid_4.jpg,right,710.2850000374019,true,high,false
arXFqsPc,3oplmf3ev80afezcyc4phujqmmslnu,3ymtujh0dwtez3v5giwmtwjz2hut4n,arXFqsPc,2020-0188,2020-11-17,06:56:17,07:15:46,NA,incomplete,114,color,1,1,left,Green_Plus_Dots_3.jpg,Green_Triangle_Stripes_2.jpg,Blue_Star_Grid_3.jpg,left,753.835000039544,true,high,false
arXFqsPc,3oplmf3ev80afezcyc4phujqmmslnu,3ymtujh0dwtez3v5giwmtwjz2hut4n,arXFqsPc,2020-0188,2020-11-17,06:56:17,07:15:46,NA,incomplete,115,color,1,1,left,Blue_Triangle_Chess_4.jpg,Blue_Plus_Stripes_1.jpg,Purple_Star_Grid_4.jpg,left,716.0000000149012,true,high,false
arXFqsPc,3oplmf3ev80afezcyc4phujqmmslnu,3ymtujh0dwtez3v5giwmtwjz2hut4n,arXFqsPc,2020-0188,2020-11-17,06:56:17,07:15:46,NA,incomplete,116,color,1,1,right,Green_Plus_Dots_4.jpg,Blue_Star_Stripes_4.jpg,Green_Triangle_Chess_1.jpg,right,594.0850000479259,true,high,false
arXFqsPc,3oplmf3ev80afezcyc4phujqmmslnu,3ymtujh0dwtez3v5giwmtwjz2hut4n,arXFqsPc,2020-0188,2020-11-17,06:56:17,07:15:46,NA,incomplete,117,color,1,1,right,Red_Plus_Stripes_1.jpg,Green_Star_Chess_1.jpg,Red_Circle_Dots_3.jpg,right,548.1399999698624,true,high,false
arXFqsPc,3oplmf3ev80afezcyc4phujqmmslnu,3ymtujh0dwtez3v5giwmtwjz2hut4n,arXFqsPc,2020-0188,2020-11-17,06:56:17,07:15:46,NA,incomplete,118,color,1,0,left,Red_Circle_Chess_1.jpg,Red_Star_Dots_2.jpg,Purple_Plus_Stripes_1.jpg,left,503.9099999703467,true,high,false
arXFqsPc,3oplmf3ev80afezcyc4phujqmmslnu,3ymtujh0dwtez3v5giwmtwjz2hut4n,arXFqsPc,2020-0188,2020-11-17,06:56:17,07:15:46,NA,incomplete,119,color,1,0,right,Red_Star_Dots_3.jpg,Purple_Plus_Chess_3.jpg,Red_Triangle_Grid_1.jpg,left,1006.2049999833107,false,high,false
arXFqsPc,3oplmf3ev80afezcyc4phujqmmslnu,3ymtujh0dwtez3v5giwmtwjz2hut4n,arXFqsPc,2020-0188,2020-11-17,06:56:17,07:15:46,NA,incomplete,120,gender,2,1,left,C_M_10.jpg,A_M_02.jpg,C_F_04.jpg,NA,NA,NA,high,false
arXFqsPc,3oplmf3ev80afezcyc4phujqmmslnu,3ymtujh0dwtez3v5giwmtwjz2hut4n,arXFqsPc,2020-0188,2020-11-17,06:56:17,07:15:46,NA,incomplete,121,gender,2,1,right,C_M_05.jpg,C_F_08.jpg,A_M_12.jpg,left,1058.2700000377372,false,high,false
arXFqsPc,3oplmf3ev80afezcyc4phujqmmslnu,3ymtujh0dwtez3v5giwmtwjz2hut4n,arXFqsPc,2020-0188,2020-11-17,06:56:17,07:15:46,NA,incomplete,122,gender,2,1,right,C_F_12.jpg,C_M_05.jpg,A_F_15.jpg,right,1413.1300000008196,true,high,false
arXFqsPc,3oplmf3ev80afezcyc4phujqmmslnu,3ymtujh0dwtez3v5giwmtwjz2hut4n,arXFqsPc,2020-0188,2020-11-17,06:56:17,07:15:46,NA,incomplete,123,gender,2,1,left,A_F_03.jpg,C_F_04.jpg,A_M_14.jpg,left,1026.7199999652803,true,high,false
arXFqsPc,3oplmf3ev80afezcyc4phujqmmslnu,3ymtujh0dwtez3v5giwmtwjz2hut4n,arXFqsPc,2020-0188,2020-11-17,06:56:17,07:15:46,NA,incomplete,124,gender,2,0,right,A_F_16.jpg,A_M_05.jpg,C_F_13.jpg,right,801.0850000428036,true,high,false
arXFqsPc,3oplmf3ev80afezcyc4phujqmmslnu,3ymtujh0dwtez3v5giwmtwjz2hut4n,arXFqsPc,2020-0188,2020-11-17,06:56:17,07:15:46,NA,incomplete,125,gender,2,1,right,A_M_15.jpg,A_F_06.jpg,C_M_01.jpg,left,1392.6450000144541,false,high,false
arXFqsPc,3oplmf3ev80afezcyc4phujqmmslnu,3ymtujh0dwtez3v5giwmtwjz2hut4n,arXFqsPc,2020-0188,2020-11-17,06:56:17,07:15:46,NA,incomplete,126,gender,2,0,left,A_F_11.jpg,C_F_10.jpg,A_M_14.jpg,left,1247.7950000320561,true,high,false
arXFqsPc,3oplmf3ev80afezcyc4phujqmmslnu,3ymtujh0dwtez3v5giwmtwjz2hut4n,arXFqsPc,2020-0188,2020-11-17,06:56:17,07:15:46,NA,incomplete,127,gender,2,1,left,A_F_03.jpg,C_F_04.jpg,A_M_09.jpg,right,1379.60500002373,false,high,false
arXFqsPc,3oplmf3ev80afezcyc4phujqmmslnu,3ymtujh0dwtez3v5giwmtwjz2hut4n,arXFqsPc,2020-0188,2020-11-17,06:56:17,07:15:46,NA,incomplete,128,gender,2,1,left,A_F_01.jpg,C_F_11.jpg,A_M_13.jpg,left,1054.9349999637343,true,high,false
arXFqsPc,3oplmf3ev80afezcyc4phujqmmslnu,3ymtujh0dwtez3v5giwmtwjz2hut4n,arXFqsPc,2020-0188,2020-11-17,06:56:17,07:15:46,NA,incomplete,129,gender,2,1,right,A_M_13.jpg,A_F_09.jpg,C_M_16.jpg,right,790.6800000346266,true,high,false
arXFqsPc,3oplmf3ev80afezcyc4phujqmmslnu,3ymtujh0dwtez3v5giwmtwjz2hut4n,arXFqsPc,2020-0188,2020-11-17,06:56:17,07:15:46,NA,incomplete,130,gender,2,0,right,C_F_09.jpg,C_M_07.jpg,A_F_05.jpg,right,896.8749999767169,true,high,false
arXFqsPc,3oplmf3ev80afezcyc4phujqmmslnu,3ymtujh0dwtez3v5giwmtwjz2hut4n,arXFqsPc,2020-0188,2020-11-17,06:56:17,07:15:46,NA,incomplete,131,gender,2,1,left,A_M_14.jpg,C_M_06.jpg,A_F_09.jpg,left,1748.410000000149,true,high,false
arXFqsPc,3oplmf3ev80afezcyc4phujqmmslnu,3ymtujh0dwtez3v5giwmtwjz2hut4n,arXFqsPc,2020-0188,2020-11-17,06:56:17,07:15:46,NA,incomplete,132,gender,2,1,left,A_F_01.jpg,C_F_04.jpg,A_M_02.jpg,left,1624.584999983199,true,high,false
arXFqsPc,3oplmf3ev80afezcyc4phujqmmslnu,3ymtujh0dwtez3v5giwmtwjz2hut4n,arXFqsPc,2020-0188,2020-11-17,06:56:17,07:15:46,NA,incomplete,133,gender,2,1,left,C_M_01.jpg,A_M_13.jpg,C_F_09.jpg,left,1060.4150000144728,true,high,false
arXFqsPc,3oplmf3ev80afezcyc4phujqmmslnu,3ymtujh0dwtez3v5giwmtwjz2hut4n,arXFqsPc,2020-0188,2020-11-17,06:56:17,07:15:46,NA,incomplete,134,gender,2,1,right,C_M_01.jpg,C_F_06.jpg,A_M_03.jpg,right,861.2950000097044,true,high,false
arXFqsPc,3oplmf3ev80afezcyc4phujqmmslnu,3ymtujh0dwtez3v5giwmtwjz2hut4n,arXFqsPc,2020-0188,2020-11-17,06:56:17,07:15:46,NA,incomplete,135,gender,2,1,left,C_M_13.jpg,A_M_15.jpg,C_F_11.jpg,left,1021.245000010822,true,high,false
arXFqsPc,3oplmf3ev80afezcyc4phujqmmslnu,3ymtujh0dwtez3v5giwmtwjz2hut4n,arXFqsPc,2020-0188,2020-11-17,06:56:17,07:15:46,NA,incomplete,136,gender,2,1,right,C_M_13.jpg,C_F_15.jpg,A_M_01.jpg,right,907.245000009425,true,high,false
arXFqsPc,3oplmf3ev80afezcyc4phujqmmslnu,3ymtujh0dwtez3v5giwmtwjz2hut4n,arXFqsPc,2020-0188,2020-11-17,06:56:17,07:15:46,NA,incomplete,137,gender,2,1,right,C_F_10.jpg,C_M_01.jpg,A_F_09.jpg,right,1000.1150000025518,true,high,false
arXFqsPc,3oplmf3ev80afezcyc4phujqmmslnu,3ymtujh0dwtez3v5giwmtwjz2hut4n,arXFqsPc,2020-0188,2020-11-17,06:56:17,07:15:46,NA,incomplete,138,gender,2,1,left,C_M_13.jpg,A_M_03.jpg,C_F_12.jpg,left,941.0700000007637,true,high,false
arXFqsPc,3oplmf3ev80afezcyc4phujqmmslnu,3ymtujh0dwtez3v5giwmtwjz2hut4n,arXFqsPc,2020-0188,2020-11-17,06:56:17,07:15:46,NA,incomplete,139,gender,2,0,right,C_F_02.jpg,C_M_05.jpg,A_F_08.jpg,right,1051.3950000167824,true,high,false
arXFqsPc,3oplmf3ev80afezcyc4phujqmmslnu,3ymtujh0dwtez3v5giwmtwjz2hut4n,arXFqsPc,2020-0188,2020-11-17,06:56:17,07:15:46,NA,incomplete,140,race,3,1,right,C_F_04.jpg,A_F_01.jpg,C_M_14.jpg,right,1311.3349999766797,true,high,false
arXFqsPc,3oplmf3ev80afezcyc4phujqmmslnu,3ymtujh0dwtez3v5giwmtwjz2hut4n,arXFqsPc,2020-0188,2020-11-17,06:56:17,07:15:46,NA,incomplete,141,race,3,1,right,C_F_14.jpg,A_F_01.jpg,C_M_07.jpg,right,1061.8350000004284,true,high,false
arXFqsPc,3oplmf3ev80afezcyc4phujqmmslnu,3ymtujh0dwtez3v5giwmtwjz2hut4n,arXFqsPc,2020-0188,2020-11-17,06:56:17,07:15:46,NA,incomplete,142,race,3,1,right,A_M_05.jpg,C_M_11.jpg,A_F_04.jpg,right,1414.8900000145659,true,high,false
arXFqsPc,3oplmf3ev80afezcyc4phujqmmslnu,3ymtujh0dwtez3v5giwmtwjz2hut4n,arXFqsPc,2020-0188,2020-11-17,06:56:17,07:15:46,NA,incomplete,143,race,3,1,left,A_F_12.jpg,A_M_09.jpg,C_F_03.jpg,left,1029.210000007879,true,high,false
arXFqsPc,3oplmf3ev80afezcyc4phujqmmslnu,3ymtujh0dwtez3v5giwmtwjz2hut4n,arXFqsPc,2020-0188,2020-11-17,06:56:17,07:15:46,NA,incomplete,144,race,3,1,left,C_M_01.jpg,C_F_13.jpg,A_M_08.jpg,left,1205.3650000016205,true,high,false
arXFqsPc,3oplmf3ev80afezcyc4phujqmmslnu,3ymtujh0dwtez3v5giwmtwjz2hut4n,arXFqsPc,2020-0188,2020-11-17,06:56:17,07:15:46,NA,incomplete,145,race,3,1,right,A_M_12.jpg,C_M_13.jpg,A_F_08.jpg,right,859.1599999926984,true,high,false
arXFqsPc,3oplmf3ev80afezcyc4phujqmmslnu,3ymtujh0dwtez3v5giwmtwjz2hut4n,arXFqsPc,2020-0188,2020-11-17,06:56:17,07:15:46,NA,incomplete,146,race,3,1,right,A_F_05.jpg,C_F_14.jpg,A_M_13.jpg,right,1045.1500000199303,true,high,false
arXFqsPc,3oplmf3ev80afezcyc4phujqmmslnu,3ymtujh0dwtez3v5giwmtwjz2hut4n,arXFqsPc,2020-0188,2020-11-17,06:56:17,07:15:46,NA,incomplete,147,race,3,0,right,C_M_12.jpg,A_M_09.jpg,C_F_04.jpg,right,1021.4599999599159,true,high,false
arXFqsPc,3oplmf3ev80afezcyc4phujqmmslnu,3ymtujh0dwtez3v5giwmtwjz2hut4n,arXFqsPc,2020-0188,2020-11-17,06:56:17,07:15:46,NA,incomplete,148,race,3,1,right,A_M_08.jpg,C_M_10.jpg,A_F_03.jpg,left,1125.4949999856763,false,high,false
arXFqsPc,3oplmf3ev80afezcyc4phujqmmslnu,3ymtujh0dwtez3v5giwmtwjz2hut4n,arXFqsPc,2020-0188,2020-11-17,06:56:17,07:15:46,NA,incomplete,149,race,3,0,right,C_F_04.jpg,A_F_16.jpg,C_M_12.jpg,left,1103.9500000188127,false,high,false
arXFqsPc,3oplmf3ev80afezcyc4phujqmmslnu,3ymtujh0dwtez3v5giwmtwjz2hut4n,arXFqsPc,2020-0188,2020-11-17,06:56:17,07:15:46,NA,incomplete,150,race,3,1,left,A_M_09.jpg,A_F_13.jpg,C_M_03.jpg,right,864.2099999706261,false,high,false
arXFqsPc,3oplmf3ev80afezcyc4phujqmmslnu,3ymtujh0dwtez3v5giwmtwjz2hut4n,arXFqsPc,2020-0188,2020-11-17,06:56:17,07:15:46,NA,incomplete,151,race,3,1,left,C_F_02.jpg,C_M_16.jpg,A_F_15.jpg,right,1070.4750000149943,false,high,false
arXFqsPc,3oplmf3ev80afezcyc4phujqmmslnu,3ymtujh0dwtez3v5giwmtwjz2hut4n,arXFqsPc,2020-0188,2020-11-17,06:56:17,07:15:46,NA,incomplete,152,race,3,1,right,C_F_05.jpg,A_F_06.jpg,C_M_01.jpg,right,1090.920000046026,true,high,false
arXFqsPc,3oplmf3ev80afezcyc4phujqmmslnu,3ymtujh0dwtez3v5giwmtwjz2hut4n,arXFqsPc,2020-0188,2020-11-17,06:56:17,07:15:46,NA,incomplete,153,race,3,1,left,A_F_05.jpg,A_M_11.jpg,C_F_13.jpg,left,1048.354999977164,true,high,false
arXFqsPc,3oplmf3ev80afezcyc4phujqmmslnu,3ymtujh0dwtez3v5giwmtwjz2hut4n,arXFqsPc,2020-0188,2020-11-17,06:56:17,07:15:46,NA,incomplete,154,race,3,1,right,A_F_06.jpg,C_F_11.jpg,A_M_07.jpg,right,1399.890000000596,true,high,false
arXFqsPc,3oplmf3ev80afezcyc4phujqmmslnu,3ymtujh0dwtez3v5giwmtwjz2hut4n,arXFqsPc,2020-0188,2020-11-17,06:56:17,07:15:46,NA,incomplete,155,race,3,1,right,C_F_07.jpg,A_F_15.jpg,C_M_13.jpg,right,1391.1949999746867,true,high,false
arXFqsPc,3oplmf3ev80afezcyc4phujqmmslnu,3ymtujh0dwtez3v5giwmtwjz2hut4n,arXFqsPc,2020-0188,2020-11-17,06:56:17,07:15:46,NA,incomplete,156,race,3,1,left,C_F_07.jpg,C_M_15.jpg,A_F_02.jpg,left,1296.715000004042,true,high,false
arXFqsPc,3oplmf3ev80afezcyc4phujqmmslnu,3ymtujh0dwtez3v5giwmtwjz2hut4n,arXFqsPc,2020-0188,2020-11-17,06:56:17,07:15:46,NA,incomplete,157,race,3,1,left,C_M_09.jpg,C_F_15.jpg,A_M_08.jpg,left,1226.139999984298,true,high,false
arXFqsPc,3oplmf3ev80afezcyc4phujqmmslnu,3ymtujh0dwtez3v5giwmtwjz2hut4n,arXFqsPc,2020-0188,2020-11-17,06:56:17,07:15:46,NA,incomplete,158,race,3,1,right,A_M_06.jpg,C_M_12.jpg,A_F_03.jpg,right,1005.040000018198,true,high,false
arXFqsPc,3oplmf3ev80afezcyc4phujqmmslnu,3ymtujh0dwtez3v5giwmtwjz2hut4n,arXFqsPc,2020-0188,2020-11-17,06:56:17,07:15:46,NA,incomplete,159,race,3,1,left,A_M_06.jpg,A_F_12.jpg,C_M_08.jpg,left,1272.3649999825284,true,high,false
arXFqsPc,3oplmf3ev80afezcyc4phujqmmslnu,3ymtujh0dwtez3v5giwmtwjz2hut4n,arXFqsPc,2020-0188,2020-11-17,06:56:17,07:15:46,NA,incomplete,160,gender,2,1,right,C_M_02.jpg,C_F_10.jpg,A_M_08.jpg,left,1145.5850000493228,false,high,false
arXFqsPc,3oplmf3ev80afezcyc4phujqmmslnu,3ymtujh0dwtez3v5giwmtwjz2hut4n,arXFqsPc,2020-0188,2020-11-17,06:56:17,07:15:46,NA,incomplete,161,gender,2,1,right,C_F_01.jpg,C_M_12.jpg,A_F_06.jpg,none,0,false,high,false
arXFqsPc,3oplmf3ev80afezcyc4phujqmmslnu,3ymtujh0dwtez3v5giwmtwjz2hut4n,arXFqsPc,2020-0188,2020-11-17,06:56:17,07:15:46,NA,incomplete,162,gender,2,0,left,C_F_03.jpg,A_F_05.jpg,C_M_09.jpg,left,821.8699999852106,true,high,false
arXFqsPc,3oplmf3ev80afezcyc4phujqmmslnu,3ymtujh0dwtez3v5giwmtwjz2hut4n,arXFqsPc,2020-0188,2020-11-17,06:56:17,07:15:46,NA,incomplete,163,gender,2,1,right,C_F_01.jpg,C_M_15.jpg,A_F_16.jpg,right,1485.7750000082888,true,high,false
arXFqsPc,3oplmf3ev80afezcyc4phujqmmslnu,3ymtujh0dwtez3v5giwmtwjz2hut4n,arXFqsPc,2020-0188,2020-11-17,06:56:17,07:15:46,NA,incomplete,164,gender,2,1,left,C_F_13.jpg,A_F_06.jpg,C_M_10.jpg,left,1108.219999994617,true,high,false
arXFqsPc,3oplmf3ev80afezcyc4phujqmmslnu,3ymtujh0dwtez3v5giwmtwjz2hut4n,arXFqsPc,2020-0188,2020-11-17,06:56:17,07:15:46,NA,incomplete,165,gender,2,0,right,A_F_07.jpg,A_M_15.jpg,C_F_04.jpg,right,774.1599999717437,true,high,false
arXFqsPc,3oplmf3ev80afezcyc4phujqmmslnu,3ymtujh0dwtez3v5giwmtwjz2hut4n,arXFqsPc,2020-0188,2020-11-17,06:56:17,07:15:46,NA,incomplete,166,gender,2,1,left,C_M_05.jpg,A_M_13.jpg,C_F_04.jpg,right,1583.9799999957904,false,high,false
arXFqsPc,3oplmf3ev80afezcyc4phujqmmslnu,3ymtujh0dwtez3v5giwmtwjz2hut4n,arXFqsPc,2020-0188,2020-11-17,06:56:17,07:15:46,NA,incomplete,167,gender,2,1,right,A_M_14.jpg,A_F_16.jpg,C_M_13.jpg,left,1171.744999999646,false,high,false
arXFqsPc,3oplmf3ev80afezcyc4phujqmmslnu,3ymtujh0dwtez3v5giwmtwjz2hut4n,arXFqsPc,2020-0188,2020-11-17,06:56:17,07:15:46,NA,incomplete,168,gender,2,0,left,C_F_07.jpg,A_F_10.jpg,C_M_11.jpg,left,959.5500000286847,true,high,false
arXFqsPc,3oplmf3ev80afezcyc4phujqmmslnu,3ymtujh0dwtez3v5giwmtwjz2hut4n,arXFqsPc,2020-0188,2020-11-17,06:56:17,07:15:46,NA,incomplete,169,gender,2,1,right,A_M_07.jpg,A_F_02.jpg,C_M_03.jpg,left,1224.4400000199676,false,high,false
arXFqsPc,3oplmf3ev80afezcyc4phujqmmslnu,3ymtujh0dwtez3v5giwmtwjz2hut4n,arXFqsPc,2020-0188,2020-11-17,06:56:17,07:15:46,NA,incomplete,170,gender,2,1,left,C_F_13.jpg,A_F_07.jpg,C_M_15.jpg,left,1307.8450000029989,true,high,false
arXFqsPc,3oplmf3ev80afezcyc4phujqmmslnu,3ymtujh0dwtez3v5giwmtwjz2hut4n,arXFqsPc,2020-0188,2020-11-17,06:56:17,07:15:46,NA,incomplete,171,gender,2,1,right,C_F_03.jpg,C_M_09.jpg,A_F_01.jpg,right,789.3299999996088,true,high,false
arXFqsPc,3oplmf3ev80afezcyc4phujqmmslnu,3ymtujh0dwtez3v5giwmtwjz2hut4n,arXFqsPc,2020-0188,2020-11-17,06:56:17,07:15:46,NA,incomplete,172,gender,2,1,left,C_F_16.jpg,A_F_08.jpg,C_M_13.jpg,left,984.9749999702908,true,high,false
arXFqsPc,3oplmf3ev80afezcyc4phujqmmslnu,3ymtujh0dwtez3v5giwmtwjz2hut4n,arXFqsPc,2020-0188,2020-11-17,06:56:17,07:15:46,NA,incomplete,173,gender,2,0,right,A_F_12.jpg,A_M_15.jpg,C_F_16.jpg,right,830.6599999777973,true,high,false
arXFqsPc,3oplmf3ev80afezcyc4phujqmmslnu,3ymtujh0dwtez3v5giwmtwjz2hut4n,arXFqsPc,2020-0188,2020-11-17,06:56:17,07:15:46,NA,incomplete,174,gender,2,1,right,C_M_07.jpg,C_F_11.jpg,A_M_06.jpg,right,1130.8800000115298,true,high,false
arXFqsPc,3oplmf3ev80afezcyc4phujqmmslnu,3ymtujh0dwtez3v5giwmtwjz2hut4n,arXFqsPc,2020-0188,2020-11-17,06:56:17,07:15:46,NA,incomplete,175,gender,2,1,right,C_M_08.jpg,C_F_15.jpg,A_M_02.jpg,right,913.330000010319,true,high,false
arXFqsPc,3oplmf3ev80afezcyc4phujqmmslnu,3ymtujh0dwtez3v5giwmtwjz2hut4n,arXFqsPc,2020-0188,2020-11-17,06:56:17,07:15:46,NA,incomplete,176,gender,2,1,right,A_F_08.jpg,A_M_10.jpg,C_F_14.jpg,right,932.1800000034273,true,high,false
arXFqsPc,3oplmf3ev80afezcyc4phujqmmslnu,3ymtujh0dwtez3v5giwmtwjz2hut4n,arXFqsPc,2020-0188,2020-11-17,06:56:17,07:15:46,NA,incomplete,177,gender,2,1,right,C_M_04.jpg,C_F_15.jpg,A_M_11.jpg,right,1172.1200000029057,true,high,false
arXFqsPc,3oplmf3ev80afezcyc4phujqmmslnu,3ymtujh0dwtez3v5giwmtwjz2hut4n,arXFqsPc,2020-0188,2020-11-17,06:56:17,07:15:46,NA,incomplete,178,gender,2,1,right,C_F_04.jpg,C_M_11.jpg,A_F_06.jpg,left,834.8850000184029,false,high,false
arXFqsPc,3oplmf3ev80afezcyc4phujqmmslnu,3ymtujh0dwtez3v5giwmtwjz2hut4n,arXFqsPc,2020-0188,2020-11-17,06:56:17,07:15:46,NA,incomplete,179,gender,2,1,right,C_M_15.jpg,C_F_13.jpg,A_M_11.jpg,right,967.4250000389293,true,high,false
arXFqsPc,3oplmf3ev80afezcyc4phujqmmslnu,3ymtujh0dwtez3v5giwmtwjz2hut4n,arXFqsPc,2020-0188,2020-11-17,06:56:17,07:15:46,NA,incomplete,180,race,3,1,left,A_F_04.jpg,A_M_09.jpg,C_F_01.jpg,right,780.6299999938346,false,high,false
arXFqsPc,3oplmf3ev80afezcyc4phujqmmslnu,3ymtujh0dwtez3v5giwmtwjz2hut4n,arXFqsPc,2020-0188,2020-11-17,06:56:17,07:15:46,NA,incomplete,181,race,3,0,right,A_F_07.jpg,C_F_13.jpg,A_M_12.jpg,left,1270.7999999984168,false,high,false
arXFqsPc,3oplmf3ev80afezcyc4phujqmmslnu,3ymtujh0dwtez3v5giwmtwjz2hut4n,arXFqsPc,2020-0188,2020-11-17,06:56:17,07:15:46,NA,incomplete,182,race,3,1,right,A_F_16.jpg,C_F_01.jpg,A_M_09.jpg,left,979.5949999825098,false,high,false
arXFqsPc,3oplmf3ev80afezcyc4phujqmmslnu,3ymtujh0dwtez3v5giwmtwjz2hut4n,arXFqsPc,2020-0188,2020-11-17,06:56:17,07:15:46,NA,incomplete,183,race,3,1,right,A_M_11.jpg,C_M_14.jpg,A_F_09.jpg,left,1061.2799999653362,false,high,false
arXFqsPc,3oplmf3ev80afezcyc4phujqmmslnu,3ymtujh0dwtez3v5giwmtwjz2hut4n,arXFqsPc,2020-0188,2020-11-17,06:56:17,07:15:46,NA,incomplete,184,race,3,1,left,C_M_08.jpg,C_F_07.jpg,A_M_02.jpg,left,1212.790000019595,true,high,false
arXFqsPc,3oplmf3ev80afezcyc4phujqmmslnu,3ymtujh0dwtez3v5giwmtwjz2hut4n,arXFqsPc,2020-0188,2020-11-17,06:56:17,07:15:46,NA,incomplete,185,race,3,1,left,C_F_13.jpg,C_M_09.jpg,A_F_14.jpg,left,1159.0999999898486,true,high,false
arXFqsPc,3oplmf3ev80afezcyc4phujqmmslnu,3ymtujh0dwtez3v5giwmtwjz2hut4n,arXFqsPc,2020-0188,2020-11-17,06:56:17,07:15:46,NA,incomplete,186,race,3,1,left,A_F_01.jpg,A_M_11.jpg,C_F_04.jpg,left,967.0949999708682,true,high,false
arXFqsPc,3oplmf3ev80afezcyc4phujqmmslnu,3ymtujh0dwtez3v5giwmtwjz2hut4n,arXFqsPc,2020-0188,2020-11-17,06:56:17,07:15:46,NA,incomplete,187,race,3,0,right,C_M_15.jpg,A_M_04.jpg,C_F_08.jpg,right,1271.565000002738,true,high,false
arXFqsPc,3oplmf3ev80afezcyc4phujqmmslnu,3ymtujh0dwtez3v5giwmtwjz2hut4n,arXFqsPc,2020-0188,2020-11-17,06:56:17,07:15:46,NA,incomplete,188,race,3,1,left,C_F_02.jpg,C_M_04.jpg,A_F_06.jpg,right,1140.0600000051782,false,high,false
arXFqsPc,3oplmf3ev80afezcyc4phujqmmslnu,3ymtujh0dwtez3v5giwmtwjz2hut4n,arXFqsPc,2020-0188,2020-11-17,06:56:17,07:15:46,NA,incomplete,189,race,3,1,left,A_M_07.jpg,A_F_14.jpg,C_M_01.jpg,right,1067.414999997709,false,high,false
arXFqsPc,3oplmf3ev80afezcyc4phujqmmslnu,3ymtujh0dwtez3v5giwmtwjz2hut4n,arXFqsPc,2020-0188,2020-11-17,06:56:17,07:15:46,NA,incomplete,190,race,3,0,left,A_M_08.jpg,A_F_16.jpg,C_M_09.jpg,left,998.410000000149,true,high,false
arXFqsPc,3oplmf3ev80afezcyc4phujqmmslnu,3ymtujh0dwtez3v5giwmtwjz2hut4n,arXFqsPc,2020-0188,2020-11-17,06:56:17,07:15:46,NA,incomplete,191,race,3,1,right,A_F_06.jpg,C_F_13.jpg,A_M_05.jpg,left,913.3399999700487,false,high,false
arXFqsPc,3oplmf3ev80afezcyc4phujqmmslnu,3ymtujh0dwtez3v5giwmtwjz2hut4n,arXFqsPc,2020-0188,2020-11-17,06:56:17,07:15:46,NA,incomplete,192,race,3,1,right,A_F_02.jpg,C_F_12.jpg,A_M_07.jpg,right,1071.6350000002421,true,high,false
arXFqsPc,3oplmf3ev80afezcyc4phujqmmslnu,3ymtujh0dwtez3v5giwmtwjz2hut4n,arXFqsPc,2020-0188,2020-11-17,06:56:17,07:15:46,NA,incomplete,193,race,3,1,right,C_F_10.jpg,A_F_02.jpg,C_M_12.jpg,right,1267.2899999888614,true,high,false
arXFqsPc,3oplmf3ev80afezcyc4phujqmmslnu,3ymtujh0dwtez3v5giwmtwjz2hut4n,arXFqsPc,2020-0188,2020-11-17,06:56:17,07:15:46,NA,incomplete,194,race,3,1,left,A_F_01.jpg,A_M_11.jpg,C_F_13.jpg,left,913.3249999722466,true,high,false
arXFqsPc,3oplmf3ev80afezcyc4phujqmmslnu,3ymtujh0dwtez3v5giwmtwjz2hut4n,arXFqsPc,2020-0188,2020-11-17,06:56:17,07:15:46,NA,incomplete,195,race,3,0,left,A_M_08.jpg,A_F_12.jpg,C_M_05.jpg,left,1233.6199999554083,true,high,false
arXFqsPc,3oplmf3ev80afezcyc4phujqmmslnu,3ymtujh0dwtez3v5giwmtwjz2hut4n,arXFqsPc,2020-0188,2020-11-17,06:56:17,07:15:46,NA,incomplete,196,race,3,1,left,C_F_11.jpg,C_M_02.jpg,A_F_14.jpg,right,869.6050000144169,false,high,false
arXFqsPc,3oplmf3ev80afezcyc4phujqmmslnu,3ymtujh0dwtez3v5giwmtwjz2hut4n,arXFqsPc,2020-0188,2020-11-17,06:56:17,07:15:46,NA,incomplete,197,race,3,1,right,C_M_01.jpg,A_M_08.jpg,C_F_11.jpg,left,1255.1800000364892,false,high,false
arXFqsPc,3oplmf3ev80afezcyc4phujqmmslnu,3ymtujh0dwtez3v5giwmtwjz2hut4n,arXFqsPc,2020-0188,2020-11-17,06:56:17,07:15:46,NA,incomplete,198,race,3,1,right,A_F_15.jpg,C_F_10.jpg,A_M_01.jpg,right,1075.9200000320561,true,high,false
arXFqsPc,3oplmf3ev80afezcyc4phujqmmslnu,3ymtujh0dwtez3v5giwmtwjz2hut4n,arXFqsPc,2020-0188,2020-11-17,06:56:17,07:15:46,NA,incomplete,199,race,3,0,right,C_F_07.jpg,A_F_14.jpg,C_M_04.jpg,right,1218.7399999820627,true,high,false
arXFqsPc,3oplmf3ev80afezcyc4phujqmmslnu,3ymtujh0dwtez3v5giwmtwjz2hut4n,arXFqsPc,2020-0188,2020-11-17,06:56:17,07:15:46,NA,incomplete,200,gender,2,1,right,C_F_04.jpg,C_M_10.jpg,A_F_02.jpg,right,1025.5249999463558,true,high,false
arXFqsPc,3oplmf3ev80afezcyc4phujqmmslnu,3ymtujh0dwtez3v5giwmtwjz2hut4n,arXFqsPc,2020-0188,2020-11-17,06:56:17,07:15:46,NA,incomplete,201,gender,2,0,right,C_F_15.jpg,C_M_06.jpg,A_F_12.jpg,right,703.0799999483861,true,high,false
arXFqsPc,3oplmf3ev80afezcyc4phujqmmslnu,3ymtujh0dwtez3v5giwmtwjz2hut4n,arXFqsPc,2020-0188,2020-11-17,06:56:17,07:15:46,NA,incomplete,202,gender,2,1,left,C_F_08.jpg,A_F_02.jpg,C_M_14.jpg,left,1198.9949999842793,true,high,false
arXFqsPc,3oplmf3ev80afezcyc4phujqmmslnu,3ymtujh0dwtez3v5giwmtwjz2hut4n,arXFqsPc,2020-0188,2020-11-17,06:56:17,07:15:46,NA,incomplete,203,gender,2,1,right,C_M_16.jpg,C_F_01.jpg,A_M_12.jpg,right,759.0750000090338,true,high,false
arXFqsPc,3oplmf3ev80afezcyc4phujqmmslnu,3ymtujh0dwtez3v5giwmtwjz2hut4n,arXFqsPc,2020-0188,2020-11-17,06:56:17,07:15:46,NA,incomplete,204,gender,2,1,left,C_F_04.jpg,A_F_01.jpg,C_M_10.jpg,left,807.3849999927916,true,high,false
arXFqsPc,3oplmf3ev80afezcyc4phujqmmslnu,3ymtujh0dwtez3v5giwmtwjz2hut4n,arXFqsPc,2020-0188,2020-11-17,06:56:17,07:15:46,NA,incomplete,205,gender,2,1,left,A_F_02.jpg,C_F_08.jpg,A_M_13.jpg,left,785.9799999860115,true,high,false
arXFqsPc,3oplmf3ev80afezcyc4phujqmmslnu,3ymtujh0dwtez3v5giwmtwjz2hut4n,arXFqsPc,2020-0188,2020-11-17,06:56:17,07:15:46,NA,incomplete,206,gender,2,1,right,C_F_02.jpg,C_M_12.jpg,A_F_13.jpg,right,986.3050000276417,true,high,false
arXFqsPc,3oplmf3ev80afezcyc4phujqmmslnu,3ymtujh0dwtez3v5giwmtwjz2hut4n,arXFqsPc,2020-0188,2020-11-17,06:56:17,07:15:46,NA,incomplete,207,gender,2,1,left,A_F_10.jpg,C_F_04.jpg,A_M_07.jpg,left,741.924999980256,true,high,false
arXFqsPc,3oplmf3ev80afezcyc4phujqmmslnu,3ymtujh0dwtez3v5giwmtwjz2hut4n,arXFqsPc,2020-0188,2020-11-17,06:56:17,07:15:46,NA,incomplete,208,gender,2,1,left,C_F_11.jpg,A_F_12.jpg,C_M_04.jpg,left,877.1450000349432,true,high,false
arXFqsPc,3oplmf3ev80afezcyc4phujqmmslnu,3ymtujh0dwtez3v5giwmtwjz2hut4n,arXFqsPc,2020-0188,2020-11-17,06:56:17,07:15:46,NA,incomplete,209,gender,2,1,left,A_F_12.jpg,C_F_14.jpg,A_M_05.jpg,left,864.110000024084,true,high,false
arXFqsPc,3oplmf3ev80afezcyc4phujqmmslnu,3ymtujh0dwtez3v5giwmtwjz2hut4n,arXFqsPc,2020-0188,2020-11-17,06:56:17,07:15:46,NA,incomplete,210,gender,2,0,right,C_M_10.jpg,C_F_06.jpg,A_M_02.jpg,right,766.1250000237487,true,high,false
arXFqsPc,3oplmf3ev80afezcyc4phujqmmslnu,3ymtujh0dwtez3v5giwmtwjz2hut4n,arXFqsPc,2020-0188,2020-11-17,06:56:17,07:15:46,NA,incomplete,211,gender,2,1,left,C_M_04.jpg,A_M_03.jpg,C_F_08.jpg,right,1303.1450000125915,false,high,false
arXFqsPc,3oplmf3ev80afezcyc4phujqmmslnu,3ymtujh0dwtez3v5giwmtwjz2hut4n,arXFqsPc,2020-0188,2020-11-17,06:56:17,07:15:46,NA,incomplete,212,gender,2,0,right,C_F_05.jpg,C_M_15.jpg,A_F_07.jpg,right,1608.2250000326894,true,high,false
arXFqsPc,3oplmf3ev80afezcyc4phujqmmslnu,3ymtujh0dwtez3v5giwmtwjz2hut4n,arXFqsPc,2020-0188,2020-11-17,06:56:17,07:15:46,NA,incomplete,213,gender,2,1,right,C_F_14.jpg,C_M_07.jpg,A_F_06.jpg,left,872.7949999738485,false,high,false
arXFqsPc,3oplmf3ev80afezcyc4phujqmmslnu,3ymtujh0dwtez3v5giwmtwjz2hut4n,arXFqsPc,2020-0188,2020-11-17,06:56:17,07:15:46,NA,incomplete,214,gender,2,1,right,A_F_09.jpg,A_M_12.jpg,C_F_15.jpg,left,919.1149999969639,false,high,false
arXFqsPc,3oplmf3ev80afezcyc4phujqmmslnu,3ymtujh0dwtez3v5giwmtwjz2hut4n,arXFqsPc,2020-0188,2020-11-17,06:56:17,07:15:46,NA,incomplete,215,gender,2,0,left,A_M_01.jpg,C_M_15.jpg,A_F_13.jpg,left,1009.1450000181794,true,high,false
arXFqsPc,3oplmf3ev80afezcyc4phujqmmslnu,3ymtujh0dwtez3v5giwmtwjz2hut4n,arXFqsPc,2020-0188,2020-11-17,06:56:17,07:15:46,NA,incomplete,216,gender,2,1,right,C_M_12.jpg,C_F_10.jpg,A_M_05.jpg,right,1285.0650000036694,true,high,false
arXFqsPc,3oplmf3ev80afezcyc4phujqmmslnu,3ymtujh0dwtez3v5giwmtwjz2hut4n,arXFqsPc,2020-0188,2020-11-17,06:56:17,07:15:46,NA,incomplete,217,gender,2,1,left,C_M_01.jpg,A_M_08.jpg,C_F_14.jpg,left,937.6000000047497,true,high,false
arXFqsPc,3oplmf3ev80afezcyc4phujqmmslnu,3ymtujh0dwtez3v5giwmtwjz2hut4n,arXFqsPc,2020-0188,2020-11-17,06:56:17,07:15:46,NA,incomplete,218,gender,2,0,left,A_F_01.jpg,C_F_06.jpg,A_M_02.jpg,left,877.2699999972247,true,high,false
arXFqsPc,3oplmf3ev80afezcyc4phujqmmslnu,3ymtujh0dwtez3v5giwmtwjz2hut4n,arXFqsPc,2020-0188,2020-11-17,06:56:17,07:15:46,NA,incomplete,219,gender,2,1,left,A_F_14.jpg,C_F_07.jpg,A_M_10.jpg,left,1047.8650000295602,true,high,false
arXFqsPc,3oplmf3ev80afezcyc4phujqmmslnu,3ymtujh0dwtez3v5giwmtwjz2hut4n,arXFqsPc,2020-0188,2020-11-17,06:56:17,07:15:46,NA,incomplete,220,race,3,0,right,C_M_10.jpg,A_M_11.jpg,C_F_02.jpg,left,918.134999985341,false,high,false
arXFqsPc,3oplmf3ev80afezcyc4phujqmmslnu,3ymtujh0dwtez3v5giwmtwjz2hut4n,arXFqsPc,2020-0188,2020-11-17,06:56:17,07:15:46,NA,incomplete,221,race,3,1,right,A_M_05.jpg,C_M_04.jpg,A_F_10.jpg,left,810.5900000082329,false,high,false
arXFqsPc,3oplmf3ev80afezcyc4phujqmmslnu,3ymtujh0dwtez3v5giwmtwjz2hut4n,arXFqsPc,2020-0188,2020-11-17,06:56:17,07:15:46,NA,incomplete,222,race,3,0,right,A_F_05.jpg,C_F_13.jpg,A_M_06.jpg,left,752.2299999836832,false,high,false
arXFqsPc,3oplmf3ev80afezcyc4phujqmmslnu,3ymtujh0dwtez3v5giwmtwjz2hut4n,arXFqsPc,2020-0188,2020-11-17,06:56:17,07:15:46,NA,incomplete,223,race,3,1,right,C_F_12.jpg,A_F_14.jpg,C_M_05.jpg,left,788.4400000330061,false,high,false
arXFqsPc,3oplmf3ev80afezcyc4phujqmmslnu,3ymtujh0dwtez3v5giwmtwjz2hut4n,arXFqsPc,2020-0188,2020-11-17,06:56:17,07:15:46,NA,incomplete,224,race,3,0,right,A_M_13.jpg,C_M_15.jpg,A_F_11.jpg,left,899.3499999633059,false,high,false
arXFqsPc,3oplmf3ev80afezcyc4phujqmmslnu,3ymtujh0dwtez3v5giwmtwjz2hut4n,arXFqsPc,2020-0188,2020-11-17,06:56:17,07:15:46,NA,incomplete,225,race,3,1,right,A_F_09.jpg,C_F_02.jpg,A_M_16.jpg,left,806.1100000049919,false,high,false
arXFqsPc,3oplmf3ev80afezcyc4phujqmmslnu,3ymtujh0dwtez3v5giwmtwjz2hut4n,arXFqsPc,2020-0188,2020-11-17,06:56:17,07:15:46,NA,incomplete,226,race,3,1,left,A_M_03.jpg,A_F_06.jpg,C_M_15.jpg,right,1115.5499999877065,false,high,false
arXFqsPc,3oplmf3ev80afezcyc4phujqmmslnu,3ymtujh0dwtez3v5giwmtwjz2hut4n,arXFqsPc,2020-0188,2020-11-17,06:56:17,07:15:46,NA,incomplete,227,race,3,1,right,A_F_01.jpg,C_F_08.jpg,A_M_15.jpg,right,924.2550000199117,true,high,false
arXFqsPc,3oplmf3ev80afezcyc4phujqmmslnu,3ymtujh0dwtez3v5giwmtwjz2hut4n,arXFqsPc,2020-0188,2020-11-17,06:56:17,07:15:46,NA,incomplete,228,race,3,1,right,C_M_02.jpg,A_M_04.jpg,C_F_03.jpg,right,944.0100000356324,true,high,false
arXFqsPc,3oplmf3ev80afezcyc4phujqmmslnu,3ymtujh0dwtez3v5giwmtwjz2hut4n,arXFqsPc,2020-0188,2020-11-17,06:56:17,07:15:46,NA,incomplete,229,race,3,0,right,C_M_02.jpg,A_M_16.jpg,C_F_13.jpg,right,959.0899999602698,true,high,false
arXFqsPc,3oplmf3ev80afezcyc4phujqmmslnu,3ymtujh0dwtez3v5giwmtwjz2hut4n,arXFqsPc,2020-0188,2020-11-17,06:56:17,07:15:46,NA,incomplete,230,race,3,1,right,C_F_10.jpg,A_F_05.jpg,C_M_11.jpg,left,1328.250000020489,false,high,false
arXFqsPc,3oplmf3ev80afezcyc4phujqmmslnu,3ymtujh0dwtez3v5giwmtwjz2hut4n,arXFqsPc,2020-0188,2020-11-17,06:56:17,07:15:46,NA,incomplete,231,race,3,1,right,A_F_15.jpg,C_F_10.jpg,A_M_01.jpg,left,752.924999978859,false,high,false
arXFqsPc,3oplmf3ev80afezcyc4phujqmmslnu,3ymtujh0dwtez3v5giwmtwjz2hut4n,arXFqsPc,2020-0188,2020-11-17,06:56:17,07:15:46,NA,incomplete,232,race,3,1,right,C_M_09.jpg,A_M_05.jpg,C_F_07.jpg,right,1125.159999995958,true,high,false
arXFqsPc,3oplmf3ev80afezcyc4phujqmmslnu,3ymtujh0dwtez3v5giwmtwjz2hut4n,arXFqsPc,2020-0188,2020-11-17,06:56:17,07:15:46,NA,incomplete,233,race,3,1,right,C_M_03.jpg,A_M_02.jpg,C_F_08.jpg,right,853.3450000104494,true,high,false
arXFqsPc,3oplmf3ev80afezcyc4phujqmmslnu,3ymtujh0dwtez3v5giwmtwjz2hut4n,arXFqsPc,2020-0188,2020-11-17,06:56:17,07:15:46,NA,incomplete,234,race,3,1,right,C_M_09.jpg,A_M_02.jpg,C_F_07.jpg,right,727.855000004638,true,high,false
arXFqsPc,3oplmf3ev80afezcyc4phujqmmslnu,3ymtujh0dwtez3v5giwmtwjz2hut4n,arXFqsPc,2020-0188,2020-11-17,06:56:17,07:15:46,NA,incomplete,235,race,3,1,left,C_M_10.jpg,C_F_09.jpg,A_M_15.jpg,right,628.229999972973,false,high,false
arXFqsPc,3oplmf3ev80afezcyc4phujqmmslnu,3ymtujh0dwtez3v5giwmtwjz2hut4n,arXFqsPc,2020-0188,2020-11-17,06:56:17,07:15:46,NA,incomplete,236,race,3,1,left,A_M_09.jpg,A_F_14.jpg,C_M_01.jpg,right,1807.474999979604,false,high,false
arXFqsPc,3oplmf3ev80afezcyc4phujqmmslnu,3ymtujh0dwtez3v5giwmtwjz2hut4n,arXFqsPc,2020-0188,2020-11-17,06:56:17,07:15:46,NA,incomplete,237,race,3,1,right,A_M_16.jpg,C_M_01.jpg,A_F_14.jpg,right,1082.529999956023,true,high,false
arXFqsPc,3oplmf3ev80afezcyc4phujqmmslnu,3ymtujh0dwtez3v5giwmtwjz2hut4n,arXFqsPc,2020-0188,2020-11-17,06:56:17,07:15:46,NA,incomplete,238,race,3,1,right,C_M_05.jpg,A_M_03.jpg,C_F_14.jpg,right,1164.10499997437,true,high,false
arXFqsPc,3oplmf3ev80afezcyc4phujqmmslnu,3ymtujh0dwtez3v5giwmtwjz2hut4n,arXFqsPc,2020-0188,2020-11-17,06:56:17,07:15:46,NA,incomplete,239,race,3,1,right,C_F_15.jpg,A_F_01.jpg,C_M_16.jpg,right,1111.1200000159442,true,high,false
arXFqsPc,3oplmf3ev80afezcyc4phujqmmslnu,3ymtujh0dwtez3v5giwmtwjz2hut4n,arXFqsPc,2020-0188,2020-11-17,06:56:17,07:15:46,NA,NA,instruction example,number,NA,NA,NA,Green_Star_Grid_4.jpg,Blue_Triangle_Chess_4.jpg,Green_Plus_Dots_2.jpg,NA,NA,NA,NA,undefined
arXFqsPc,3oplmf3ev80afezcyc4phujqmmslnu,3ymtujh0dwtez3v5giwmtwjz2hut4n,arXFqsPc,2020-0188,2020-11-17,06:56:17,07:15:46,NA,NA,instruction example,number,NA,NA,NA,Blue_Triangle_Dots_4.jpg,Blue_Plus_Grid_2.jpg,Red_Star_Chess_4.jpg,NA,NA,NA,NA,undefined
arXFqsPc,3oplmf3ev80afezcyc4phujqmmslnu,3ymtujh0dwtez3v5giwmtwjz2hut4n,arXFqsPc,2020-0188,2020-11-17,06:56:17,07:15:46,NA,NA,instruction example,number,NA,NA,NA,C_M_09.jpg,A_M_08.jpg,C_F_13.jpg,NA,NA,NA,NA,undefined
arXFqsPc,3oplmf3ev80afezcyc4phujqmmslnu,3ymtujh0dwtez3v5giwmtwjz2hut4n,arXFqsPc,2020-0188,2020-11-17,06:56:17,07:15:46,NA,NA,instruction example,number,NA,NA,NA,C_M_07.jpg,C_F_10.jpg,A_M_09.jpg,NA,NA,NA,NA,undefined
