workerId,hitId,assignmentId,subject,studyid,exp_date,exp_start,exp_end,time_start,time_end,trial,type,sequence,reward_validity,answer,image_top,image_left,image_right,response,response_time,response_acc,volatility,practice
JRGdamfe,3kqc8jmjhf51pencp85cgosduim3h1,3z2r0dq0jlr276ylm9o31vmzjj6e2z,JRGdamfe,2020-0188,2020-06-04,18:48:13,19:14:32,NA,incomplete,0,color,0,1,left,Purple_Triangle_Chess_4.jpg,Purple_Circle_Grid_1.jpg,Red_Plus_Chess_2.jpg,left,1390.5249999997905,true,NA,true
JRGdamfe,3kqc8jmjhf51pencp85cgosduim3h1,3z2r0dq0jlr276ylm9o31vmzjj6e2z,JRGdamfe,2020-0188,2020-06-04,18:48:13,19:14:32,NA,incomplete,1,color,0,1,left,Green_Circle_Dots_3.jpg,Green_Star_Chess_1.jpg,Red_Triangle_Dots_2.jpg,left,709.699999999837,true,NA,true
JRGdamfe,3kqc8jmjhf51pencp85cgosduim3h1,3z2r0dq0jlr276ylm9o31vmzjj6e2z,JRGdamfe,2020-0188,2020-06-04,18:48:13,19:14:32,NA,incomplete,2,color,0,1,right,Blue_Star_Dots_3.jpg,Purple_Circle_Dots_1.jpg,Blue_Plus_Chess_4.jpg,right,628.6299999996554,true,NA,true
JRGdamfe,3kqc8jmjhf51pencp85cgosduim3h1,3z2r0dq0jlr276ylm9o31vmzjj6e2z,JRGdamfe,2020-0188,2020-06-04,18:48:13,19:14:32,NA,incomplete,3,color,0,1,right,Green_Plus_Grid_2.jpg,Blue_Star_Grid_4.jpg,Green_Circle_Dots_3.jpg,right,606.9899999997579,true,NA,true
JRGdamfe,3kqc8jmjhf51pencp85cgosduim3h1,3z2r0dq0jlr276ylm9o31vmzjj6e2z,JRGdamfe,2020-0188,2020-06-04,18:48:13,19:14:32,NA,incomplete,4,color,0,1,left,Purple_Star_Grid_1.jpg,Purple_Circle_Chess_2.jpg,Green_Triangle_Grid_4.jpg,left,711.9999999998836,true,NA,true
JRGdamfe,3kqc8jmjhf51pencp85cgosduim3h1,3z2r0dq0jlr276ylm9o31vmzjj6e2z,JRGdamfe,2020-0188,2020-06-04,18:48:13,19:14:32,NA,incomplete,5,color,0,1,right,Red_Star_Stripes_4.jpg,Purple_Circle_Stripes_3.jpg,Red_Plus_Grid_1.jpg,right,767.3600000003353,true,NA,true
JRGdamfe,3kqc8jmjhf51pencp85cgosduim3h1,3z2r0dq0jlr276ylm9o31vmzjj6e2z,JRGdamfe,2020-0188,2020-06-04,18:48:13,19:14:32,NA,incomplete,6,color,0,0,right,Purple_Plus_Chess_4.jpg,Green_Triangle_Chess_1.jpg,Purple_Star_Dots_2.jpg,right,567.5200000000186,true,NA,true
JRGdamfe,3kqc8jmjhf51pencp85cgosduim3h1,3z2r0dq0jlr276ylm9o31vmzjj6e2z,JRGdamfe,2020-0188,2020-06-04,18:48:13,19:14:32,NA,incomplete,7,color,0,1,left,Green_Star_Stripes_1.jpg,Green_Plus_Grid_4.jpg,Purple_Triangle_Stripes_3.jpg,left,663.5700000001816,true,NA,true
JRGdamfe,3kqc8jmjhf51pencp85cgosduim3h1,3z2r0dq0jlr276ylm9o31vmzjj6e2z,JRGdamfe,2020-0188,2020-06-04,18:48:13,19:14:32,NA,incomplete,8,color,0,1,right,Blue_Star_Stripes_3.jpg,Green_Plus_Stripes_4.jpg,Blue_Triangle_Chess_1.jpg,right,601.3649999999907,true,NA,true
JRGdamfe,3kqc8jmjhf51pencp85cgosduim3h1,3z2r0dq0jlr276ylm9o31vmzjj6e2z,JRGdamfe,2020-0188,2020-06-04,18:48:13,19:14:32,NA,incomplete,9,color,0,1,right,Red_Plus_Chess_4.jpg,Green_Star_Chess_3.jpg,Red_Triangle_Dots_1.jpg,right,583.4400000002934,true,NA,true
JRGdamfe,3kqc8jmjhf51pencp85cgosduim3h1,3z2r0dq0jlr276ylm9o31vmzjj6e2z,JRGdamfe,2020-0188,2020-06-04,18:48:13,19:14:32,NA,incomplete,10,color,0,0,right,Purple_Circle_Dots_4.jpg,Green_Star_Dots_1.jpg,Purple_Plus_Stripes_2.jpg,right,548.8150000000605,true,NA,true
JRGdamfe,3kqc8jmjhf51pencp85cgosduim3h1,3z2r0dq0jlr276ylm9o31vmzjj6e2z,JRGdamfe,2020-0188,2020-06-04,18:48:13,19:14:32,NA,incomplete,11,color,0,1,right,Red_Circle_Chess_2.jpg,Purple_Plus_Chess_3.jpg,Red_Star_Grid_4.jpg,right,547.8099999999395,true,NA,true
JRGdamfe,3kqc8jmjhf51pencp85cgosduim3h1,3z2r0dq0jlr276ylm9o31vmzjj6e2z,JRGdamfe,2020-0188,2020-06-04,18:48:13,19:14:32,NA,incomplete,12,color,0,1,right,Red_Plus_Chess_3.jpg,Green_Triangle_Chess_4.jpg,Red_Star_Grid_2.jpg,right,617.3299999999581,true,NA,true
JRGdamfe,3kqc8jmjhf51pencp85cgosduim3h1,3z2r0dq0jlr276ylm9o31vmzjj6e2z,JRGdamfe,2020-0188,2020-06-04,18:48:13,19:14:32,NA,incomplete,13,color,0,1,right,Blue_Star_Grid_3.jpg,Green_Circle_Grid_4.jpg,Blue_Triangle_Stripes_1.jpg,right,634.520000000135,true,NA,true
JRGdamfe,3kqc8jmjhf51pencp85cgosduim3h1,3z2r0dq0jlr276ylm9o31vmzjj6e2z,JRGdamfe,2020-0188,2020-06-04,18:48:13,19:14:32,NA,incomplete,14,color,0,0,right,Red_Plus_Stripes_3.jpg,Purple_Triangle_Stripes_1.jpg,Red_Star_Chess_4.jpg,right,502.85999999998603,true,NA,true
JRGdamfe,3kqc8jmjhf51pencp85cgosduim3h1,3z2r0dq0jlr276ylm9o31vmzjj6e2z,JRGdamfe,2020-0188,2020-06-04,18:48:13,19:14:32,NA,incomplete,15,color,0,1,left,Red_Star_Dots_1.jpg,Red_Circle_Stripes_2.jpg,Blue_Plus_Dots_3.jpg,left,782.3050000001676,true,NA,true
JRGdamfe,3kqc8jmjhf51pencp85cgosduim3h1,3z2r0dq0jlr276ylm9o31vmzjj6e2z,JRGdamfe,2020-0188,2020-06-04,18:48:13,19:14:32,NA,incomplete,16,color,0,1,left,Blue_Star_Dots_3.jpg,Blue_Plus_Grid_1.jpg,Purple_Circle_Dots_4.jpg,left,671.2449999999953,true,NA,true
JRGdamfe,3kqc8jmjhf51pencp85cgosduim3h1,3z2r0dq0jlr276ylm9o31vmzjj6e2z,JRGdamfe,2020-0188,2020-06-04,18:48:13,19:14:32,NA,incomplete,17,color,0,1,left,Red_Plus_Dots_1.jpg,Red_Star_Stripes_2.jpg,Blue_Circle_Dots_3.jpg,left,602.7700000000186,true,NA,true
JRGdamfe,3kqc8jmjhf51pencp85cgosduim3h1,3z2r0dq0jlr276ylm9o31vmzjj6e2z,JRGdamfe,2020-0188,2020-06-04,18:48:13,19:14:32,NA,incomplete,18,color,0,1,right,Green_Plus_Stripes_3.jpg,Blue_Circle_Stripes_2.jpg,Green_Star_Grid_4.jpg,right,512.6450000002515,true,NA,true
JRGdamfe,3kqc8jmjhf51pencp85cgosduim3h1,3z2r0dq0jlr276ylm9o31vmzjj6e2z,JRGdamfe,2020-0188,2020-06-04,18:48:13,19:14:32,NA,incomplete,19,color,0,1,left,Red_Circle_Chess_4.jpg,Red_Triangle_Dots_2.jpg,Purple_Plus_Chess_3.jpg,left,545.3849999998929,true,NA,true
JRGdamfe,3kqc8jmjhf51pencp85cgosduim3h1,3z2r0dq0jlr276ylm9o31vmzjj6e2z,JRGdamfe,2020-0188,2020-06-04,18:48:13,19:14:32,NA,incomplete,20,filling,1,0,left,Purple_Circle_Grid_3.jpg,Blue_Plus_Grid_4.jpg,Purple_Triangle_Dots_1.jpg,left,1096.4950000002282,true,NA,true
JRGdamfe,3kqc8jmjhf51pencp85cgosduim3h1,3z2r0dq0jlr276ylm9o31vmzjj6e2z,JRGdamfe,2020-0188,2020-06-04,18:48:13,19:14:32,NA,incomplete,21,filling,1,1,right,Blue_Circle_Grid_1.jpg,Blue_Plus_Stripes_2.jpg,Red_Triangle_Grid_3.jpg,left,922.2199999998556,false,NA,true
JRGdamfe,3kqc8jmjhf51pencp85cgosduim3h1,3z2r0dq0jlr276ylm9o31vmzjj6e2z,JRGdamfe,2020-0188,2020-06-04,18:48:13,19:14:32,NA,incomplete,22,filling,1,1,left,Blue_Plus_Chess_4.jpg,Purple_Triangle_Chess_1.jpg,Blue_Circle_Grid_2.jpg,left,1113.3500000000931,true,NA,true
JRGdamfe,3kqc8jmjhf51pencp85cgosduim3h1,3z2r0dq0jlr276ylm9o31vmzjj6e2z,JRGdamfe,2020-0188,2020-06-04,18:48:13,19:14:32,NA,incomplete,23,filling,1,1,left,Blue_Triangle_Grid_4.jpg,Purple_Star_Grid_1.jpg,Blue_Circle_Dots_2.jpg,right,933.5900000000838,false,NA,true
JRGdamfe,3kqc8jmjhf51pencp85cgosduim3h1,3z2r0dq0jlr276ylm9o31vmzjj6e2z,JRGdamfe,2020-0188,2020-06-04,18:48:13,19:14:32,NA,incomplete,24,filling,1,0,right,Green_Circle_Chess_4.jpg,Green_Triangle_Stripes_2.jpg,Red_Plus_Chess_1.jpg,right,895.9850000001024,true,NA,true
JRGdamfe,3kqc8jmjhf51pencp85cgosduim3h1,3z2r0dq0jlr276ylm9o31vmzjj6e2z,JRGdamfe,2020-0188,2020-06-04,18:48:13,19:14:32,NA,incomplete,25,filling,1,0,right,Blue_Star_Dots_2.jpg,Blue_Triangle_Grid_3.jpg,Green_Plus_Dots_4.jpg,right,1123.2399999998743,true,NA,true
JRGdamfe,3kqc8jmjhf51pencp85cgosduim3h1,3z2r0dq0jlr276ylm9o31vmzjj6e2z,JRGdamfe,2020-0188,2020-06-04,18:48:13,19:14:32,NA,incomplete,26,filling,1,1,left,Green_Circle_Dots_3.jpg,Blue_Triangle_Dots_1.jpg,Green_Star_Grid_4.jpg,left,1232.8749999996508,true,NA,true
JRGdamfe,3kqc8jmjhf51pencp85cgosduim3h1,3z2r0dq0jlr276ylm9o31vmzjj6e2z,JRGdamfe,2020-0188,2020-06-04,18:48:13,19:14:32,NA,incomplete,27,filling,1,1,left,Purple_Triangle_Grid_1.jpg,Green_Plus_Grid_2.jpg,Purple_Star_Chess_4.jpg,left,1030.7050000000745,true,NA,true
JRGdamfe,3kqc8jmjhf51pencp85cgosduim3h1,3z2r0dq0jlr276ylm9o31vmzjj6e2z,JRGdamfe,2020-0188,2020-06-04,18:48:13,19:14:32,NA,incomplete,28,filling,1,1,left,Blue_Circle_Dots_3.jpg,Green_Plus_Dots_4.jpg,Blue_Triangle_Grid_1.jpg,left,959.9500000004191,true,NA,true
JRGdamfe,3kqc8jmjhf51pencp85cgosduim3h1,3z2r0dq0jlr276ylm9o31vmzjj6e2z,JRGdamfe,2020-0188,2020-06-04,18:48:13,19:14:32,NA,incomplete,29,filling,1,1,left,Purple_Circle_Dots_1.jpg,Blue_Triangle_Dots_4.jpg,Purple_Plus_Stripes_3.jpg,left,925.5100000000093,true,NA,true
JRGdamfe,3kqc8jmjhf51pencp85cgosduim3h1,3z2r0dq0jlr276ylm9o31vmzjj6e2z,JRGdamfe,2020-0188,2020-06-04,18:48:13,19:14:32,NA,incomplete,30,filling,1,1,left,Green_Triangle_Stripes_1.jpg,Blue_Circle_Stripes_3.jpg,Green_Plus_Chess_4.jpg,right,1061.9249999999302,false,NA,true
JRGdamfe,3kqc8jmjhf51pencp85cgosduim3h1,3z2r0dq0jlr276ylm9o31vmzjj6e2z,JRGdamfe,2020-0188,2020-06-04,18:48:13,19:14:32,NA,incomplete,31,filling,1,1,right,Red_Plus_Stripes_3.jpg,Red_Triangle_Dots_2.jpg,Blue_Circle_Stripes_4.jpg,right,898.6649999998044,true,NA,true
JRGdamfe,3kqc8jmjhf51pencp85cgosduim3h1,3z2r0dq0jlr276ylm9o31vmzjj6e2z,JRGdamfe,2020-0188,2020-06-04,18:48:13,19:14:32,NA,incomplete,32,filling,1,1,left,Blue_Triangle_Stripes_1.jpg,Red_Circle_Stripes_2.jpg,Blue_Plus_Chess_4.jpg,left,895.1850000002887,true,NA,true
JRGdamfe,3kqc8jmjhf51pencp85cgosduim3h1,3z2r0dq0jlr276ylm9o31vmzjj6e2z,JRGdamfe,2020-0188,2020-06-04,18:48:13,19:14:32,NA,incomplete,33,filling,1,0,right,Red_Triangle_Dots_4.jpg,Red_Star_Stripes_2.jpg,Green_Circle_Dots_1.jpg,right,824.1350000002421,true,NA,true
JRGdamfe,3kqc8jmjhf51pencp85cgosduim3h1,3z2r0dq0jlr276ylm9o31vmzjj6e2z,JRGdamfe,2020-0188,2020-06-04,18:48:13,19:14:32,NA,incomplete,34,filling,1,0,right,Red_Circle_Chess_4.jpg,Red_Plus_Stripes_1.jpg,Blue_Star_Chess_2.jpg,right,906.434999999823,true,NA,true
JRGdamfe,3kqc8jmjhf51pencp85cgosduim3h1,3z2r0dq0jlr276ylm9o31vmzjj6e2z,JRGdamfe,2020-0188,2020-06-04,18:48:13,19:14:32,NA,incomplete,35,filling,1,1,right,Blue_Plus_Dots_1.jpg,Blue_Triangle_Grid_4.jpg,Red_Star_Dots_2.jpg,right,975.4699999998556,true,NA,true
JRGdamfe,3kqc8jmjhf51pencp85cgosduim3h1,3z2r0dq0jlr276ylm9o31vmzjj6e2z,JRGdamfe,2020-0188,2020-06-04,18:48:13,19:14:32,NA,incomplete,36,filling,1,1,right,Green_Circle_Stripes_2.jpg,Green_Triangle_Chess_3.jpg,Blue_Star_Stripes_4.jpg,right,893.8699999998789,true,NA,true
JRGdamfe,3kqc8jmjhf51pencp85cgosduim3h1,3z2r0dq0jlr276ylm9o31vmzjj6e2z,JRGdamfe,2020-0188,2020-06-04,18:48:13,19:14:32,NA,incomplete,37,filling,1,1,right,Red_Circle_Stripes_4.jpg,Red_Plus_Grid_1.jpg,Green_Triangle_Stripes_2.jpg,right,1019.1899999999441,true,NA,true
JRGdamfe,3kqc8jmjhf51pencp85cgosduim3h1,3z2r0dq0jlr276ylm9o31vmzjj6e2z,JRGdamfe,2020-0188,2020-06-04,18:48:13,19:14:32,NA,incomplete,38,filling,1,1,left,Blue_Plus_Grid_3.jpg,Green_Triangle_Grid_4.jpg,Blue_Circle_Chess_1.jpg,left,935.4450000000652,true,NA,true
JRGdamfe,3kqc8jmjhf51pencp85cgosduim3h1,3z2r0dq0jlr276ylm9o31vmzjj6e2z,JRGdamfe,2020-0188,2020-06-04,18:48:13,19:14:32,NA,incomplete,39,filling,1,1,right,Green_Triangle_Dots_2.jpg,Green_Star_Stripes_1.jpg,Blue_Plus_Dots_3.jpg,right,922.2550000000047,true,NA,true
JRGdamfe,3kqc8jmjhf51pencp85cgosduim3h1,3z2r0dq0jlr276ylm9o31vmzjj6e2z,JRGdamfe,2020-0188,2020-06-04,18:48:13,19:14:32,NA,incomplete,0,color,0,1,right,Blue_Triangle_Stripes_4.jpg,Purple_Star_Stripes_2.jpg,Blue_Plus_Chess_3.jpg,right,801.4000000002561,true,low,false
JRGdamfe,3kqc8jmjhf51pencp85cgosduim3h1,3z2r0dq0jlr276ylm9o31vmzjj6e2z,JRGdamfe,2020-0188,2020-06-04,18:48:13,19:14:32,NA,incomplete,1,color,0,1,right,Green_Star_Dots_3.jpg,Red_Circle_Dots_2.jpg,Green_Plus_Chess_1.jpg,left,903.0999999999767,false,low,false
JRGdamfe,3kqc8jmjhf51pencp85cgosduim3h1,3z2r0dq0jlr276ylm9o31vmzjj6e2z,JRGdamfe,2020-0188,2020-06-04,18:48:13,19:14:32,NA,incomplete,2,color,0,0,right,Blue_Circle_Grid_4.jpg,Purple_Plus_Grid_2.jpg,Blue_Triangle_Stripes_1.jpg,right,676.550000000163,true,low,false
JRGdamfe,3kqc8jmjhf51pencp85cgosduim3h1,3z2r0dq0jlr276ylm9o31vmzjj6e2z,JRGdamfe,2020-0188,2020-06-04,18:48:13,19:14:32,NA,incomplete,3,color,0,1,right,Blue_Plus_Stripes_4.jpg,Red_Triangle_Stripes_2.jpg,Blue_Circle_Chess_3.jpg,right,487.2300000002142,true,low,false
JRGdamfe,3kqc8jmjhf51pencp85cgosduim3h1,3z2r0dq0jlr276ylm9o31vmzjj6e2z,JRGdamfe,2020-0188,2020-06-04,18:48:13,19:14:32,NA,incomplete,4,color,0,0,right,Blue_Circle_Grid_2.jpg,Red_Triangle_Grid_1.jpg,Blue_Star_Stripes_4.jpg,right,595.2050000000745,true,low,false
JRGdamfe,3kqc8jmjhf51pencp85cgosduim3h1,3z2r0dq0jlr276ylm9o31vmzjj6e2z,JRGdamfe,2020-0188,2020-06-04,18:48:13,19:14:32,NA,incomplete,5,color,0,0,left,Green_Plus_Stripes_2.jpg,Green_Triangle_Grid_1.jpg,Blue_Star_Stripes_4.jpg,left,834.5349999999162,true,low,false
JRGdamfe,3kqc8jmjhf51pencp85cgosduim3h1,3z2r0dq0jlr276ylm9o31vmzjj6e2z,JRGdamfe,2020-0188,2020-06-04,18:48:13,19:14:32,NA,incomplete,6,color,0,1,left,Blue_Circle_Grid_4.jpg,Blue_Triangle_Stripes_1.jpg,Green_Star_Grid_3.jpg,left,1013.0600000001723,true,low,false
JRGdamfe,3kqc8jmjhf51pencp85cgosduim3h1,3z2r0dq0jlr276ylm9o31vmzjj6e2z,JRGdamfe,2020-0188,2020-06-04,18:48:13,19:14:32,NA,incomplete,7,color,0,1,left,Blue_Circle_Dots_4.jpg,Blue_Triangle_Chess_3.jpg,Red_Plus_Dots_1.jpg,left,706.4549999999581,true,low,false
JRGdamfe,3kqc8jmjhf51pencp85cgosduim3h1,3z2r0dq0jlr276ylm9o31vmzjj6e2z,JRGdamfe,2020-0188,2020-06-04,18:48:13,19:14:32,NA,incomplete,8,color,0,1,left,Green_Triangle_Grid_2.jpg,Green_Circle_Chess_1.jpg,Purple_Plus_Grid_3.jpg,right,839.3550000000978,false,low,false
JRGdamfe,3kqc8jmjhf51pencp85cgosduim3h1,3z2r0dq0jlr276ylm9o31vmzjj6e2z,JRGdamfe,2020-0188,2020-06-04,18:48:13,19:14:32,NA,incomplete,9,color,0,1,right,Blue_Triangle_Chess_3.jpg,Red_Circle_Chess_2.jpg,Blue_Star_Dots_1.jpg,right,732.9899999999907,true,low,false
JRGdamfe,3kqc8jmjhf51pencp85cgosduim3h1,3z2r0dq0jlr276ylm9o31vmzjj6e2z,JRGdamfe,2020-0188,2020-06-04,18:48:13,19:14:32,NA,incomplete,10,color,0,0,left,Blue_Plus_Grid_4.jpg,Blue_Triangle_Stripes_3.jpg,Red_Star_Grid_2.jpg,left,695.5699999999488,true,low,false
JRGdamfe,3kqc8jmjhf51pencp85cgosduim3h1,3z2r0dq0jlr276ylm9o31vmzjj6e2z,JRGdamfe,2020-0188,2020-06-04,18:48:13,19:14:32,NA,incomplete,11,color,0,0,left,Green_Circle_Grid_1.jpg,Green_Star_Chess_4.jpg,Blue_Plus_Grid_2.jpg,right,908.9600000001956,false,low,false
JRGdamfe,3kqc8jmjhf51pencp85cgosduim3h1,3z2r0dq0jlr276ylm9o31vmzjj6e2z,JRGdamfe,2020-0188,2020-06-04,18:48:13,19:14:32,NA,incomplete,12,color,0,0,right,Purple_Circle_Grid_1.jpg,Red_Triangle_Grid_2.jpg,Purple_Plus_Chess_4.jpg,left,1002.2400000003399,false,low,false
JRGdamfe,3kqc8jmjhf51pencp85cgosduim3h1,3z2r0dq0jlr276ylm9o31vmzjj6e2z,JRGdamfe,2020-0188,2020-06-04,18:48:13,19:14:32,NA,incomplete,13,color,0,0,right,Blue_Plus_Chess_2.jpg,Purple_Triangle_Chess_3.jpg,Blue_Circle_Grid_1.jpg,right,924.8600000001024,true,low,false
JRGdamfe,3kqc8jmjhf51pencp85cgosduim3h1,3z2r0dq0jlr276ylm9o31vmzjj6e2z,JRGdamfe,2020-0188,2020-06-04,18:48:13,19:14:32,NA,incomplete,14,color,0,1,right,Blue_Plus_Dots_2.jpg,Red_Star_Dots_3.jpg,Blue_Circle_Chess_1.jpg,left,933.3499999997439,false,low,false
JRGdamfe,3kqc8jmjhf51pencp85cgosduim3h1,3z2r0dq0jlr276ylm9o31vmzjj6e2z,JRGdamfe,2020-0188,2020-06-04,18:48:13,19:14:32,NA,incomplete,15,color,0,1,right,Purple_Plus_Grid_3.jpg,Red_Star_Grid_1.jpg,Purple_Circle_Chess_2.jpg,left,926.5799999997253,false,low,false
JRGdamfe,3kqc8jmjhf51pencp85cgosduim3h1,3z2r0dq0jlr276ylm9o31vmzjj6e2z,JRGdamfe,2020-0188,2020-06-04,18:48:13,19:14:32,NA,incomplete,16,color,0,1,right,Green_Star_Dots_3.jpg,Red_Plus_Dots_1.jpg,Green_Circle_Stripes_2.jpg,left,1016.6949999998324,false,low,false
JRGdamfe,3kqc8jmjhf51pencp85cgosduim3h1,3z2r0dq0jlr276ylm9o31vmzjj6e2z,JRGdamfe,2020-0188,2020-06-04,18:48:13,19:14:32,NA,incomplete,17,color,0,1,right,Blue_Circle_Stripes_1.jpg,Red_Triangle_Stripes_4.jpg,Blue_Star_Grid_3.jpg,right,613.9549999997253,true,low,false
JRGdamfe,3kqc8jmjhf51pencp85cgosduim3h1,3z2r0dq0jlr276ylm9o31vmzjj6e2z,JRGdamfe,2020-0188,2020-06-04,18:48:13,19:14:32,NA,incomplete,18,color,0,0,left,Red_Triangle_Grid_3.jpg,Red_Plus_Stripes_1.jpg,Green_Circle_Grid_2.jpg,left,903.9699999998556,true,low,false
JRGdamfe,3kqc8jmjhf51pencp85cgosduim3h1,3z2r0dq0jlr276ylm9o31vmzjj6e2z,JRGdamfe,2020-0188,2020-06-04,18:48:13,19:14:32,NA,incomplete,19,color,0,1,left,Blue_Circle_Stripes_2.jpg,Blue_Plus_Grid_1.jpg,Red_Star_Stripes_3.jpg,right,987.8850000000093,false,low,false
JRGdamfe,3kqc8jmjhf51pencp85cgosduim3h1,3z2r0dq0jlr276ylm9o31vmzjj6e2z,JRGdamfe,2020-0188,2020-06-04,18:48:13,19:14:32,NA,incomplete,20,color,0,0,left,Purple_Circle_Chess_3.jpg,Purple_Triangle_Dots_1.jpg,Green_Star_Chess_4.jpg,right,1133.119999999879,false,low,false
JRGdamfe,3kqc8jmjhf51pencp85cgosduim3h1,3z2r0dq0jlr276ylm9o31vmzjj6e2z,JRGdamfe,2020-0188,2020-06-04,18:48:13,19:14:32,NA,incomplete,21,color,0,1,right,Purple_Star_Dots_1.jpg,Green_Plus_Dots_2.jpg,Purple_Triangle_Chess_4.jpg,left,1053.4750000000931,false,low,false
JRGdamfe,3kqc8jmjhf51pencp85cgosduim3h1,3z2r0dq0jlr276ylm9o31vmzjj6e2z,JRGdamfe,2020-0188,2020-06-04,18:48:13,19:14:32,NA,incomplete,22,color,0,1,left,Purple_Triangle_Stripes_4.jpg,Purple_Star_Dots_1.jpg,Red_Circle_Stripes_2.jpg,left,763.1249999998836,true,low,false
JRGdamfe,3kqc8jmjhf51pencp85cgosduim3h1,3z2r0dq0jlr276ylm9o31vmzjj6e2z,JRGdamfe,2020-0188,2020-06-04,18:48:13,19:14:32,NA,incomplete,23,color,0,1,right,Purple_Plus_Chess_1.jpg,Red_Star_Chess_2.jpg,Purple_Triangle_Grid_4.jpg,right,648.4650000002002,true,low,false
JRGdamfe,3kqc8jmjhf51pencp85cgosduim3h1,3z2r0dq0jlr276ylm9o31vmzjj6e2z,JRGdamfe,2020-0188,2020-06-04,18:48:13,19:14:32,NA,incomplete,24,color,0,1,right,Green_Plus_Stripes_4.jpg,Blue_Star_Stripes_1.jpg,Green_Circle_Grid_2.jpg,right,671.2400000002235,true,low,false
JRGdamfe,3kqc8jmjhf51pencp85cgosduim3h1,3z2r0dq0jlr276ylm9o31vmzjj6e2z,JRGdamfe,2020-0188,2020-06-04,18:48:13,19:14:32,NA,incomplete,25,color,0,1,left,Purple_Plus_Stripes_3.jpg,Purple_Triangle_Dots_2.jpg,Red_Circle_Stripes_4.jpg,left,808.125,true,low,false
JRGdamfe,3kqc8jmjhf51pencp85cgosduim3h1,3z2r0dq0jlr276ylm9o31vmzjj6e2z,JRGdamfe,2020-0188,2020-06-04,18:48:13,19:14:32,NA,incomplete,26,color,0,1,right,Red_Star_Grid_1.jpg,Green_Plus_Grid_3.jpg,Red_Triangle_Chess_2.jpg,right,646.6850000000559,true,low,false
JRGdamfe,3kqc8jmjhf51pencp85cgosduim3h1,3z2r0dq0jlr276ylm9o31vmzjj6e2z,JRGdamfe,2020-0188,2020-06-04,18:48:13,19:14:32,NA,incomplete,27,color,0,1,right,Purple_Circle_Stripes_1.jpg,Blue_Star_Stripes_2.jpg,Purple_Triangle_Chess_3.jpg,right,691.8949999999022,true,low,false
JRGdamfe,3kqc8jmjhf51pencp85cgosduim3h1,3z2r0dq0jlr276ylm9o31vmzjj6e2z,JRGdamfe,2020-0188,2020-06-04,18:48:13,19:14:32,NA,incomplete,28,color,0,1,left,Green_Circle_Dots_3.jpg,Green_Plus_Stripes_1.jpg,Blue_Star_Dots_4.jpg,left,593.9650000000838,true,low,false
JRGdamfe,3kqc8jmjhf51pencp85cgosduim3h1,3z2r0dq0jlr276ylm9o31vmzjj6e2z,JRGdamfe,2020-0188,2020-06-04,18:48:13,19:14:32,NA,incomplete,29,color,0,0,left,Red_Circle_Stripes_1.jpg,Red_Triangle_Dots_4.jpg,Green_Star_Stripes_2.jpg,left,736.4300000004005,true,low,false
JRGdamfe,3kqc8jmjhf51pencp85cgosduim3h1,3z2r0dq0jlr276ylm9o31vmzjj6e2z,JRGdamfe,2020-0188,2020-06-04,18:48:13,19:14:32,NA,incomplete,30,filling,1,1,right,Purple_Triangle_Stripes_3.jpg,Purple_Circle_Chess_4.jpg,Red_Plus_Stripes_2.jpg,left,659.5250000001397,false,low,false
JRGdamfe,3kqc8jmjhf51pencp85cgosduim3h1,3z2r0dq0jlr276ylm9o31vmzjj6e2z,JRGdamfe,2020-0188,2020-06-04,18:48:13,19:14:32,NA,incomplete,31,filling,1,0,left,Red_Star_Grid_4.jpg,Green_Circle_Grid_1.jpg,Red_Plus_Chess_2.jpg,right,579.1300000000047,false,low,false
JRGdamfe,3kqc8jmjhf51pencp85cgosduim3h1,3z2r0dq0jlr276ylm9o31vmzjj6e2z,JRGdamfe,2020-0188,2020-06-04,18:48:13,19:14:32,NA,incomplete,32,filling,1,1,left,Purple_Plus_Stripes_1.jpg,Green_Circle_Stripes_3.jpg,Purple_Triangle_Chess_4.jpg,right,526.75,false,low,false
JRGdamfe,3kqc8jmjhf51pencp85cgosduim3h1,3z2r0dq0jlr276ylm9o31vmzjj6e2z,JRGdamfe,2020-0188,2020-06-04,18:48:13,19:14:32,NA,incomplete,33,filling,1,1,left,Blue_Plus_Grid_3.jpg,Purple_Triangle_Grid_4.jpg,Blue_Circle_Dots_2.jpg,right,673.7699999999022,false,low,false
JRGdamfe,3kqc8jmjhf51pencp85cgosduim3h1,3z2r0dq0jlr276ylm9o31vmzjj6e2z,JRGdamfe,2020-0188,2020-06-04,18:48:13,19:14:32,NA,incomplete,34,filling,1,1,right,Purple_Circle_Chess_2.jpg,Purple_Plus_Dots_1.jpg,Red_Star_Chess_3.jpg,right,1067.4150000000373,true,low,false
JRGdamfe,3kqc8jmjhf51pencp85cgosduim3h1,3z2r0dq0jlr276ylm9o31vmzjj6e2z,JRGdamfe,2020-0188,2020-06-04,18:48:13,19:14:32,NA,incomplete,35,filling,1,1,right,Red_Star_Grid_1.jpg,Red_Plus_Stripes_3.jpg,Green_Circle_Grid_4.jpg,right,1297.45999999973,true,low,false
JRGdamfe,3kqc8jmjhf51pencp85cgosduim3h1,3z2r0dq0jlr276ylm9o31vmzjj6e2z,JRGdamfe,2020-0188,2020-06-04,18:48:13,19:14:32,NA,incomplete,36,filling,1,1,right,Red_Triangle_Chess_3.jpg,Red_Plus_Stripes_2.jpg,Blue_Circle_Chess_4.jpg,left,993.2700000000186,false,low,false
JRGdamfe,3kqc8jmjhf51pencp85cgosduim3h1,3z2r0dq0jlr276ylm9o31vmzjj6e2z,JRGdamfe,2020-0188,2020-06-04,18:48:13,19:14:32,NA,incomplete,37,filling,1,0,left,Purple_Circle_Chess_4.jpg,Green_Triangle_Chess_1.jpg,Purple_Star_Stripes_3.jpg,right,491.0899999999674,false,low,false
JRGdamfe,3kqc8jmjhf51pencp85cgosduim3h1,3z2r0dq0jlr276ylm9o31vmzjj6e2z,JRGdamfe,2020-0188,2020-06-04,18:48:13,19:14:32,NA,incomplete,38,filling,1,0,left,Purple_Triangle_Stripes_2.jpg,Red_Star_Stripes_4.jpg,Purple_Circle_Grid_3.jpg,left,945.0399999995716,true,low,false
JRGdamfe,3kqc8jmjhf51pencp85cgosduim3h1,3z2r0dq0jlr276ylm9o31vmzjj6e2z,JRGdamfe,2020-0188,2020-06-04,18:48:13,19:14:32,NA,incomplete,39,filling,1,1,left,Red_Triangle_Grid_4.jpg,Purple_Plus_Grid_1.jpg,Red_Circle_Dots_3.jpg,right,1012.9550000000745,false,low,false
JRGdamfe,3kqc8jmjhf51pencp85cgosduim3h1,3z2r0dq0jlr276ylm9o31vmzjj6e2z,JRGdamfe,2020-0188,2020-06-04,18:48:13,19:14:32,NA,incomplete,40,filling,1,1,right,Purple_Star_Stripes_2.jpg,Purple_Triangle_Dots_4.jpg,Red_Plus_Stripes_3.jpg,left,945.6749999999302,false,low,false
JRGdamfe,3kqc8jmjhf51pencp85cgosduim3h1,3z2r0dq0jlr276ylm9o31vmzjj6e2z,JRGdamfe,2020-0188,2020-06-04,18:48:13,19:14:32,NA,incomplete,41,filling,1,0,right,Purple_Plus_Grid_1.jpg,Purple_Triangle_Chess_2.jpg,Blue_Star_Grid_4.jpg,right,940.2150000000838,true,low,false
JRGdamfe,3kqc8jmjhf51pencp85cgosduim3h1,3z2r0dq0jlr276ylm9o31vmzjj6e2z,JRGdamfe,2020-0188,2020-06-04,18:48:13,19:14:32,NA,incomplete,42,filling,1,1,left,Purple_Star_Chess_2.jpg,Blue_Plus_Chess_1.jpg,Purple_Triangle_Stripes_4.jpg,right,871.680000000284,false,low,false
JRGdamfe,3kqc8jmjhf51pencp85cgosduim3h1,3z2r0dq0jlr276ylm9o31vmzjj6e2z,JRGdamfe,2020-0188,2020-06-04,18:48:13,19:14:32,NA,incomplete,43,filling,1,1,right,Blue_Circle_Dots_3.jpg,Blue_Triangle_Stripes_1.jpg,Red_Plus_Dots_4.jpg,right,1015.3199999999488,true,low,false
JRGdamfe,3kqc8jmjhf51pencp85cgosduim3h1,3z2r0dq0jlr276ylm9o31vmzjj6e2z,JRGdamfe,2020-0188,2020-06-04,18:48:13,19:14:32,NA,incomplete,44,filling,1,1,left,Red_Circle_Stripes_2.jpg,Green_Star_Stripes_3.jpg,Red_Triangle_Dots_1.jpg,left,750.3249999999534,true,low,false
JRGdamfe,3kqc8jmjhf51pencp85cgosduim3h1,3z2r0dq0jlr276ylm9o31vmzjj6e2z,JRGdamfe,2020-0188,2020-06-04,18:48:13,19:14:32,NA,incomplete,45,filling,1,1,left,Red_Circle_Stripes_4.jpg,Green_Triangle_Stripes_1.jpg,Red_Plus_Chess_3.jpg,right,827.1349999998929,false,low,false
JRGdamfe,3kqc8jmjhf51pencp85cgosduim3h1,3z2r0dq0jlr276ylm9o31vmzjj6e2z,JRGdamfe,2020-0188,2020-06-04,18:48:13,19:14:32,NA,incomplete,46,filling,1,1,right,Blue_Triangle_Stripes_4.jpg,Blue_Plus_Chess_3.jpg,Purple_Circle_Stripes_2.jpg,left,930.9649999999674,false,low,false
JRGdamfe,3kqc8jmjhf51pencp85cgosduim3h1,3z2r0dq0jlr276ylm9o31vmzjj6e2z,JRGdamfe,2020-0188,2020-06-04,18:48:13,19:14:32,NA,incomplete,47,filling,1,1,left,Purple_Triangle_Stripes_1.jpg,Red_Circle_Stripes_4.jpg,Purple_Star_Grid_2.jpg,right,828.7049999999581,false,low,false
JRGdamfe,3kqc8jmjhf51pencp85cgosduim3h1,3z2r0dq0jlr276ylm9o31vmzjj6e2z,JRGdamfe,2020-0188,2020-06-04,18:48:13,19:14:32,NA,incomplete,48,filling,1,1,right,Purple_Plus_Stripes_3.jpg,Purple_Star_Dots_1.jpg,Blue_Triangle_Stripes_4.jpg,left,918.1750000002794,false,low,false
JRGdamfe,3kqc8jmjhf51pencp85cgosduim3h1,3z2r0dq0jlr276ylm9o31vmzjj6e2z,JRGdamfe,2020-0188,2020-06-04,18:48:13,19:14:32,NA,incomplete,49,filling,1,1,right,Blue_Star_Grid_1.jpg,Blue_Circle_Stripes_3.jpg,Purple_Triangle_Grid_4.jpg,right,558.0649999997113,true,low,false
JRGdamfe,3kqc8jmjhf51pencp85cgosduim3h1,3z2r0dq0jlr276ylm9o31vmzjj6e2z,JRGdamfe,2020-0188,2020-06-04,18:48:13,19:14:32,NA,incomplete,50,filling,1,1,left,Purple_Triangle_Dots_3.jpg,Red_Star_Dots_2.jpg,Purple_Circle_Stripes_1.jpg,right,692.4850000001024,false,low,false
JRGdamfe,3kqc8jmjhf51pencp85cgosduim3h1,3z2r0dq0jlr276ylm9o31vmzjj6e2z,JRGdamfe,2020-0188,2020-06-04,18:48:13,19:14:32,NA,incomplete,51,filling,1,1,left,Green_Circle_Chess_3.jpg,Red_Plus_Chess_4.jpg,Green_Triangle_Dots_2.jpg,right,362.6850000000559,false,low,false
JRGdamfe,3kqc8jmjhf51pencp85cgosduim3h1,3z2r0dq0jlr276ylm9o31vmzjj6e2z,JRGdamfe,2020-0188,2020-06-04,18:48:13,19:14:32,NA,incomplete,52,filling,1,1,right,Red_Star_Dots_3.jpg,Red_Triangle_Stripes_4.jpg,Green_Circle_Dots_1.jpg,left,717.7300000003306,false,low,false
JRGdamfe,3kqc8jmjhf51pencp85cgosduim3h1,3z2r0dq0jlr276ylm9o31vmzjj6e2z,JRGdamfe,2020-0188,2020-06-04,18:48:13,19:14:32,NA,incomplete,53,filling,1,1,left,Red_Plus_Grid_2.jpg,Blue_Star_Grid_3.jpg,Red_Circle_Stripes_1.jpg,left,422.39999999990687,true,low,false
JRGdamfe,3kqc8jmjhf51pencp85cgosduim3h1,3z2r0dq0jlr276ylm9o31vmzjj6e2z,JRGdamfe,2020-0188,2020-06-04,18:48:13,19:14:32,NA,incomplete,54,filling,1,0,left,Green_Circle_Dots_3.jpg,Red_Star_Dots_1.jpg,Green_Plus_Grid_2.jpg,right,946.3199999999488,false,low,false
JRGdamfe,3kqc8jmjhf51pencp85cgosduim3h1,3z2r0dq0jlr276ylm9o31vmzjj6e2z,JRGdamfe,2020-0188,2020-06-04,18:48:13,19:14:32,NA,incomplete,55,filling,1,1,right,Green_Plus_Stripes_3.jpg,Green_Star_Dots_4.jpg,Purple_Triangle_Stripes_2.jpg,left,813.1250000001164,false,low,false
JRGdamfe,3kqc8jmjhf51pencp85cgosduim3h1,3z2r0dq0jlr276ylm9o31vmzjj6e2z,JRGdamfe,2020-0188,2020-06-04,18:48:13,19:14:32,NA,incomplete,56,filling,1,1,right,Red_Plus_Dots_4.jpg,Red_Circle_Grid_1.jpg,Purple_Star_Dots_2.jpg,left,980.8149999999441,false,low,false
JRGdamfe,3kqc8jmjhf51pencp85cgosduim3h1,3z2r0dq0jlr276ylm9o31vmzjj6e2z,JRGdamfe,2020-0188,2020-06-04,18:48:13,19:14:32,NA,incomplete,57,filling,1,1,left,Green_Star_Chess_4.jpg,Red_Circle_Chess_3.jpg,Green_Triangle_Grid_1.jpg,left,1101.6850000001723,true,low,false
JRGdamfe,3kqc8jmjhf51pencp85cgosduim3h1,3z2r0dq0jlr276ylm9o31vmzjj6e2z,JRGdamfe,2020-0188,2020-06-04,18:48:13,19:14:32,NA,incomplete,58,filling,1,1,right,Blue_Triangle_Grid_3.jpg,Blue_Circle_Dots_1.jpg,Red_Star_Grid_2.jpg,left,1056.0500000000466,false,low,false
JRGdamfe,3kqc8jmjhf51pencp85cgosduim3h1,3z2r0dq0jlr276ylm9o31vmzjj6e2z,JRGdamfe,2020-0188,2020-06-04,18:48:13,19:14:32,NA,incomplete,59,filling,1,1,left,Green_Plus_Dots_2.jpg,Purple_Triangle_Dots_1.jpg,Green_Star_Stripes_4.jpg,left,1005.0249999999069,true,low,false
JRGdamfe,3kqc8jmjhf51pencp85cgosduim3h1,3z2r0dq0jlr276ylm9o31vmzjj6e2z,JRGdamfe,2020-0188,2020-06-04,18:48:13,19:14:32,NA,incomplete,60,color,0,1,right,Purple_Triangle_Stripes_4.jpg,Red_Plus_Stripes_3.jpg,Purple_Star_Dots_2.jpg,left,911.4949999998789,false,low,false
JRGdamfe,3kqc8jmjhf51pencp85cgosduim3h1,3z2r0dq0jlr276ylm9o31vmzjj6e2z,JRGdamfe,2020-0188,2020-06-04,18:48:13,19:14:32,NA,incomplete,61,color,0,0,left,Purple_Plus_Grid_3.jpg,Purple_Circle_Stripes_1.jpg,Red_Triangle_Grid_2.jpg,left,1062.059999999823,true,low,false
JRGdamfe,3kqc8jmjhf51pencp85cgosduim3h1,3z2r0dq0jlr276ylm9o31vmzjj6e2z,JRGdamfe,2020-0188,2020-06-04,18:48:13,19:14:32,NA,incomplete,62,color,0,1,right,Green_Star_Dots_1.jpg,Blue_Plus_Dots_3.jpg,Green_Circle_Stripes_4.jpg,right,1002.8050000001676,true,low,false
JRGdamfe,3kqc8jmjhf51pencp85cgosduim3h1,3z2r0dq0jlr276ylm9o31vmzjj6e2z,JRGdamfe,2020-0188,2020-06-04,18:48:13,19:14:32,NA,incomplete,63,color,0,1,left,Blue_Star_Chess_1.jpg,Blue_Plus_Grid_3.jpg,Green_Triangle_Chess_4.jpg,left,591.9500000000698,true,low,false
JRGdamfe,3kqc8jmjhf51pencp85cgosduim3h1,3z2r0dq0jlr276ylm9o31vmzjj6e2z,JRGdamfe,2020-0188,2020-06-04,18:48:13,19:14:32,NA,incomplete,64,color,0,1,left,Green_Plus_Stripes_3.jpg,Green_Triangle_Chess_2.jpg,Blue_Star_Stripes_4.jpg,left,834.824999999837,true,low,false
JRGdamfe,3kqc8jmjhf51pencp85cgosduim3h1,3z2r0dq0jlr276ylm9o31vmzjj6e2z,JRGdamfe,2020-0188,2020-06-04,18:48:13,19:14:32,NA,incomplete,65,color,0,1,left,Blue_Plus_Chess_3.jpg,Blue_Circle_Dots_1.jpg,Purple_Triangle_Chess_4.jpg,left,758.4099999999162,true,low,false
JRGdamfe,3kqc8jmjhf51pencp85cgosduim3h1,3z2r0dq0jlr276ylm9o31vmzjj6e2z,JRGdamfe,2020-0188,2020-06-04,18:48:13,19:14:32,NA,incomplete,66,color,0,1,left,Green_Plus_Chess_2.jpg,Green_Triangle_Dots_4.jpg,Red_Circle_Chess_3.jpg,right,941.449999999837,false,low,false
JRGdamfe,3kqc8jmjhf51pencp85cgosduim3h1,3z2r0dq0jlr276ylm9o31vmzjj6e2z,JRGdamfe,2020-0188,2020-06-04,18:48:13,19:14:32,NA,incomplete,67,color,0,1,left,Red_Star_Grid_4.jpg,Red_Plus_Stripes_2.jpg,Purple_Circle_Grid_3.jpg,left,712.9000000000233,true,low,false
JRGdamfe,3kqc8jmjhf51pencp85cgosduim3h1,3z2r0dq0jlr276ylm9o31vmzjj6e2z,JRGdamfe,2020-0188,2020-06-04,18:48:13,19:14:32,NA,incomplete,68,color,0,1,left,Green_Triangle_Grid_3.jpg,Green_Circle_Dots_1.jpg,Blue_Star_Grid_4.jpg,left,495.8950000000186,true,low,false
JRGdamfe,3kqc8jmjhf51pencp85cgosduim3h1,3z2r0dq0jlr276ylm9o31vmzjj6e2z,JRGdamfe,2020-0188,2020-06-04,18:48:13,19:14:32,NA,incomplete,69,color,0,1,right,Green_Plus_Chess_3.jpg,Purple_Triangle_Chess_2.jpg,Green_Circle_Grid_4.jpg,right,576.0200000000186,true,low,false
JRGdamfe,3kqc8jmjhf51pencp85cgosduim3h1,3z2r0dq0jlr276ylm9o31vmzjj6e2z,JRGdamfe,2020-0188,2020-06-04,18:48:13,19:14:32,NA,incomplete,70,color,0,1,left,Blue_Star_Dots_3.jpg,Blue_Triangle_Grid_1.jpg,Green_Circle_Dots_2.jpg,left,553.8200000000652,true,low,false
JRGdamfe,3kqc8jmjhf51pencp85cgosduim3h1,3z2r0dq0jlr276ylm9o31vmzjj6e2z,JRGdamfe,2020-0188,2020-06-04,18:48:13,19:14:32,NA,incomplete,71,color,0,1,left,Red_Circle_Dots_4.jpg,Red_Plus_Chess_2.jpg,Green_Triangle_Dots_3.jpg,left,753.3749999997672,true,low,false
JRGdamfe,3kqc8jmjhf51pencp85cgosduim3h1,3z2r0dq0jlr276ylm9o31vmzjj6e2z,JRGdamfe,2020-0188,2020-06-04,18:48:13,19:14:32,NA,incomplete,72,color,0,1,left,Blue_Star_Grid_3.jpg,Blue_Triangle_Stripes_4.jpg,Red_Circle_Grid_1.jpg,left,645.8649999999907,true,low,false
JRGdamfe,3kqc8jmjhf51pencp85cgosduim3h1,3z2r0dq0jlr276ylm9o31vmzjj6e2z,JRGdamfe,2020-0188,2020-06-04,18:48:13,19:14:32,NA,incomplete,73,color,0,1,left,Green_Star_Chess_4.jpg,Green_Circle_Grid_1.jpg,Red_Plus_Chess_2.jpg,left,653.8249999999534,true,low,false
JRGdamfe,3kqc8jmjhf51pencp85cgosduim3h1,3z2r0dq0jlr276ylm9o31vmzjj6e2z,JRGdamfe,2020-0188,2020-06-04,18:48:13,19:14:32,NA,incomplete,74,color,0,1,left,Blue_Plus_Stripes_1.jpg,Blue_Circle_Dots_3.jpg,Red_Star_Stripes_4.jpg,left,629.0699999998324,true,low,false
JRGdamfe,3kqc8jmjhf51pencp85cgosduim3h1,3z2r0dq0jlr276ylm9o31vmzjj6e2z,JRGdamfe,2020-0188,2020-06-04,18:48:13,19:14:32,NA,incomplete,75,color,0,0,right,Green_Plus_Stripes_4.jpg,Red_Triangle_Stripes_1.jpg,Green_Circle_Chess_3.jpg,right,535.8700000001118,true,low,false
JRGdamfe,3kqc8jmjhf51pencp85cgosduim3h1,3z2r0dq0jlr276ylm9o31vmzjj6e2z,JRGdamfe,2020-0188,2020-06-04,18:48:13,19:14:32,NA,incomplete,76,color,0,0,right,Blue_Circle_Dots_2.jpg,Purple_Star_Dots_3.jpg,Blue_Triangle_Grid_1.jpg,right,853.3249999999534,true,low,false
JRGdamfe,3kqc8jmjhf51pencp85cgosduim3h1,3z2r0dq0jlr276ylm9o31vmzjj6e2z,JRGdamfe,2020-0188,2020-06-04,18:48:13,19:14:32,NA,incomplete,77,color,0,1,right,Blue_Star_Stripes_3.jpg,Red_Circle_Stripes_1.jpg,Blue_Plus_Chess_2.jpg,right,729.1650000000373,true,low,false
JRGdamfe,3kqc8jmjhf51pencp85cgosduim3h1,3z2r0dq0jlr276ylm9o31vmzjj6e2z,JRGdamfe,2020-0188,2020-06-04,18:48:13,19:14:32,NA,incomplete,78,color,0,1,left,Red_Triangle_Grid_1.jpg,Red_Star_Chess_3.jpg,Blue_Circle_Grid_4.jpg,left,564.7800000002608,true,low,false
JRGdamfe,3kqc8jmjhf51pencp85cgosduim3h1,3z2r0dq0jlr276ylm9o31vmzjj6e2z,JRGdamfe,2020-0188,2020-06-04,18:48:13,19:14:32,NA,incomplete,79,color,0,1,right,Blue_Star_Stripes_2.jpg,Purple_Circle_Stripes_3.jpg,Blue_Plus_Grid_1.jpg,right,582.6200000001118,true,low,false
JRGdamfe,3kqc8jmjhf51pencp85cgosduim3h1,3z2r0dq0jlr276ylm9o31vmzjj6e2z,JRGdamfe,2020-0188,2020-06-04,18:48:13,19:14:32,NA,incomplete,80,color,0,1,right,Purple_Plus_Dots_2.jpg,Red_Triangle_Dots_1.jpg,Purple_Star_Grid_4.jpg,right,522.0649999999441,true,low,false
JRGdamfe,3kqc8jmjhf51pencp85cgosduim3h1,3z2r0dq0jlr276ylm9o31vmzjj6e2z,JRGdamfe,2020-0188,2020-06-04,18:48:13,19:14:32,NA,incomplete,81,color,0,0,right,Red_Triangle_Dots_2.jpg,Blue_Star_Dots_1.jpg,Red_Plus_Grid_4.jpg,right,557.1850000002887,true,low,false
JRGdamfe,3kqc8jmjhf51pencp85cgosduim3h1,3z2r0dq0jlr276ylm9o31vmzjj6e2z,JRGdamfe,2020-0188,2020-06-04,18:48:13,19:14:32,NA,incomplete,82,color,0,1,right,Purple_Triangle_Chess_1.jpg,Green_Plus_Chess_2.jpg,Purple_Circle_Dots_3.jpg,left,1085.5200000000186,false,low,false
JRGdamfe,3kqc8jmjhf51pencp85cgosduim3h1,3z2r0dq0jlr276ylm9o31vmzjj6e2z,JRGdamfe,2020-0188,2020-06-04,18:48:13,19:14:32,NA,incomplete,83,color,0,1,right,Purple_Plus_Chess_1.jpg,Red_Star_Chess_4.jpg,Purple_Triangle_Stripes_2.jpg,left,870.2049999996088,false,low,false
JRGdamfe,3kqc8jmjhf51pencp85cgosduim3h1,3z2r0dq0jlr276ylm9o31vmzjj6e2z,JRGdamfe,2020-0188,2020-06-04,18:48:13,19:14:32,NA,incomplete,84,color,0,0,left,Green_Star_Dots_4.jpg,Green_Circle_Grid_2.jpg,Purple_Plus_Dots_3.jpg,left,814.3249999999534,true,low,false
JRGdamfe,3kqc8jmjhf51pencp85cgosduim3h1,3z2r0dq0jlr276ylm9o31vmzjj6e2z,JRGdamfe,2020-0188,2020-06-04,18:48:13,19:14:32,NA,incomplete,85,color,0,1,left,Red_Star_Grid_4.jpg,Red_Triangle_Stripes_1.jpg,Blue_Circle_Grid_3.jpg,right,661.2499999997672,false,low,false
JRGdamfe,3kqc8jmjhf51pencp85cgosduim3h1,3z2r0dq0jlr276ylm9o31vmzjj6e2z,JRGdamfe,2020-0188,2020-06-04,18:48:13,19:14:32,NA,incomplete,86,color,0,1,left,Blue_Triangle_Stripes_3.jpg,Blue_Plus_Dots_1.jpg,Purple_Circle_Stripes_4.jpg,left,630.2449999998789,true,low,false
JRGdamfe,3kqc8jmjhf51pencp85cgosduim3h1,3z2r0dq0jlr276ylm9o31vmzjj6e2z,JRGdamfe,2020-0188,2020-06-04,18:48:13,19:14:32,NA,incomplete,87,color,0,0,left,Red_Plus_Stripes_3.jpg,Red_Star_Grid_4.jpg,Green_Triangle_Stripes_2.jpg,left,705.0750000001863,true,low,false
JRGdamfe,3kqc8jmjhf51pencp85cgosduim3h1,3z2r0dq0jlr276ylm9o31vmzjj6e2z,JRGdamfe,2020-0188,2020-06-04,18:48:13,19:14:32,NA,incomplete,88,color,0,1,left,Purple_Star_Grid_1.jpg,Purple_Plus_Dots_2.jpg,Blue_Triangle_Grid_4.jpg,left,976.179999999702,true,low,false
JRGdamfe,3kqc8jmjhf51pencp85cgosduim3h1,3z2r0dq0jlr276ylm9o31vmzjj6e2z,JRGdamfe,2020-0188,2020-06-04,18:48:13,19:14:32,NA,incomplete,89,color,0,1,right,Green_Circle_Chess_2.jpg,Red_Triangle_Chess_4.jpg,Green_Star_Stripes_3.jpg,right,776.1650000002701,true,low,false
JRGdamfe,3kqc8jmjhf51pencp85cgosduim3h1,3z2r0dq0jlr276ylm9o31vmzjj6e2z,JRGdamfe,2020-0188,2020-06-04,18:48:13,19:14:32,NA,incomplete,90,filling,1,1,right,Red_Plus_Stripes_1.jpg,Red_Triangle_Grid_2.jpg,Blue_Circle_Stripes_4.jpg,left,679.660000000149,false,low,false
JRGdamfe,3kqc8jmjhf51pencp85cgosduim3h1,3z2r0dq0jlr276ylm9o31vmzjj6e2z,JRGdamfe,2020-0188,2020-06-04,18:48:13,19:14:32,NA,incomplete,91,filling,1,1,right,Blue_Star_Chess_1.jpg,Blue_Triangle_Stripes_2.jpg,Red_Circle_Chess_4.jpg,right,915.1149999999907,true,low,false
JRGdamfe,3kqc8jmjhf51pencp85cgosduim3h1,3z2r0dq0jlr276ylm9o31vmzjj6e2z,JRGdamfe,2020-0188,2020-06-04,18:48:13,19:14:32,NA,incomplete,92,filling,1,1,right,Green_Circle_Chess_4.jpg,Green_Triangle_Dots_1.jpg,Blue_Plus_Chess_2.jpg,right,841.4599999999627,true,low,false
JRGdamfe,3kqc8jmjhf51pencp85cgosduim3h1,3z2r0dq0jlr276ylm9o31vmzjj6e2z,JRGdamfe,2020-0188,2020-06-04,18:48:13,19:14:32,NA,incomplete,93,filling,1,1,right,Purple_Triangle_Chess_3.jpg,Purple_Plus_Grid_2.jpg,Red_Star_Chess_1.jpg,right,965.0550000001676,true,low,false
JRGdamfe,3kqc8jmjhf51pencp85cgosduim3h1,3z2r0dq0jlr276ylm9o31vmzjj6e2z,JRGdamfe,2020-0188,2020-06-04,18:48:13,19:14:32,NA,incomplete,94,filling,1,1,left,Purple_Triangle_Dots_3.jpg,Red_Circle_Dots_2.jpg,Purple_Star_Grid_4.jpg,left,761.7150000000838,true,low,false
JRGdamfe,3kqc8jmjhf51pencp85cgosduim3h1,3z2r0dq0jlr276ylm9o31vmzjj6e2z,JRGdamfe,2020-0188,2020-06-04,18:48:13,19:14:32,NA,incomplete,95,filling,1,1,left,Green_Star_Stripes_4.jpg,Purple_Circle_Stripes_1.jpg,Green_Triangle_Dots_2.jpg,left,849.6850000000559,true,low,false
JRGdamfe,3kqc8jmjhf51pencp85cgosduim3h1,3z2r0dq0jlr276ylm9o31vmzjj6e2z,JRGdamfe,2020-0188,2020-06-04,18:48:13,19:14:32,NA,incomplete,96,filling,1,1,right,Green_Triangle_Chess_1.jpg,Green_Circle_Dots_2.jpg,Red_Star_Chess_4.jpg,right,814.1550000000279,true,low,false
JRGdamfe,3kqc8jmjhf51pencp85cgosduim3h1,3z2r0dq0jlr276ylm9o31vmzjj6e2z,JRGdamfe,2020-0188,2020-06-04,18:48:13,19:14:32,NA,incomplete,97,filling,1,1,left,Green_Circle_Grid_3.jpg,Red_Triangle_Grid_2.jpg,Green_Star_Chess_4.jpg,left,757.6199999998789,true,low,false
JRGdamfe,3kqc8jmjhf51pencp85cgosduim3h1,3z2r0dq0jlr276ylm9o31vmzjj6e2z,JRGdamfe,2020-0188,2020-06-04,18:48:13,19:14:32,NA,incomplete,98,filling,1,1,left,Red_Circle_Chess_2.jpg,Green_Plus_Chess_4.jpg,Red_Star_Dots_3.jpg,left,900.3950000000186,true,low,false
JRGdamfe,3kqc8jmjhf51pencp85cgosduim3h1,3z2r0dq0jlr276ylm9o31vmzjj6e2z,JRGdamfe,2020-0188,2020-06-04,18:48:13,19:14:32,NA,incomplete,99,filling,1,1,left,Green_Star_Dots_2.jpg,Purple_Circle_Dots_1.jpg,Green_Triangle_Chess_3.jpg,left,872.0049999996554,true,low,false
JRGdamfe,3kqc8jmjhf51pencp85cgosduim3h1,3z2r0dq0jlr276ylm9o31vmzjj6e2z,JRGdamfe,2020-0188,2020-06-04,18:48:13,19:14:32,NA,incomplete,100,filling,1,1,left,Blue_Plus_Dots_1.jpg,Purple_Circle_Dots_4.jpg,Blue_Triangle_Stripes_3.jpg,left,815.7949999999255,true,low,false
JRGdamfe,3kqc8jmjhf51pencp85cgosduim3h1,3z2r0dq0jlr276ylm9o31vmzjj6e2z,JRGdamfe,2020-0188,2020-06-04,18:48:13,19:14:32,NA,incomplete,101,filling,1,1,right,Red_Star_Chess_2.jpg,Red_Plus_Dots_1.jpg,Green_Triangle_Chess_3.jpg,right,815.8900000001304,true,low,false
JRGdamfe,3kqc8jmjhf51pencp85cgosduim3h1,3z2r0dq0jlr276ylm9o31vmzjj6e2z,JRGdamfe,2020-0188,2020-06-04,18:48:13,19:14:32,NA,incomplete,102,filling,1,1,right,Purple_Star_Stripes_3.jpg,Purple_Circle_Grid_2.jpg,Blue_Triangle_Stripes_1.jpg,left,815.8299999998417,false,low,false
JRGdamfe,3kqc8jmjhf51pencp85cgosduim3h1,3z2r0dq0jlr276ylm9o31vmzjj6e2z,JRGdamfe,2020-0188,2020-06-04,18:48:13,19:14:32,NA,incomplete,103,filling,1,1,left,Red_Star_Dots_3.jpg,Purple_Circle_Dots_4.jpg,Red_Triangle_Stripes_1.jpg,left,927.0600000000559,true,low,false
JRGdamfe,3kqc8jmjhf51pencp85cgosduim3h1,3z2r0dq0jlr276ylm9o31vmzjj6e2z,JRGdamfe,2020-0188,2020-06-04,18:48:13,19:14:32,NA,incomplete,104,filling,1,0,right,Green_Triangle_Grid_1.jpg,Green_Star_Chess_2.jpg,Blue_Circle_Grid_4.jpg,right,799.5249999999069,true,low,false
JRGdamfe,3kqc8jmjhf51pencp85cgosduim3h1,3z2r0dq0jlr276ylm9o31vmzjj6e2z,JRGdamfe,2020-0188,2020-06-04,18:48:13,19:14:32,NA,incomplete,105,filling,1,1,left,Blue_Circle_Chess_1.jpg,Purple_Plus_Chess_2.jpg,Blue_Star_Grid_4.jpg,left,939.8900000001304,true,low,false
JRGdamfe,3kqc8jmjhf51pencp85cgosduim3h1,3z2r0dq0jlr276ylm9o31vmzjj6e2z,JRGdamfe,2020-0188,2020-06-04,18:48:13,19:14:32,NA,incomplete,106,filling,1,1,right,Green_Triangle_Chess_4.jpg,Green_Star_Grid_1.jpg,Purple_Plus_Chess_3.jpg,right,949.9250000000466,true,low,false
JRGdamfe,3kqc8jmjhf51pencp85cgosduim3h1,3z2r0dq0jlr276ylm9o31vmzjj6e2z,JRGdamfe,2020-0188,2020-06-04,18:48:13,19:14:32,NA,incomplete,107,filling,1,1,left,Red_Triangle_Chess_2.jpg,Blue_Plus_Chess_3.jpg,Red_Star_Stripes_4.jpg,left,810.8149999997113,true,low,false
JRGdamfe,3kqc8jmjhf51pencp85cgosduim3h1,3z2r0dq0jlr276ylm9o31vmzjj6e2z,JRGdamfe,2020-0188,2020-06-04,18:48:13,19:14:32,NA,incomplete,108,filling,1,1,left,Blue_Star_Stripes_3.jpg,Purple_Plus_Stripes_2.jpg,Blue_Triangle_Dots_1.jpg,left,905.1249999997672,true,low,false
JRGdamfe,3kqc8jmjhf51pencp85cgosduim3h1,3z2r0dq0jlr276ylm9o31vmzjj6e2z,JRGdamfe,2020-0188,2020-06-04,18:48:13,19:14:32,NA,incomplete,109,filling,1,1,left,Green_Plus_Stripes_3.jpg,Purple_Star_Stripes_2.jpg,Green_Circle_Dots_1.jpg,left,766.3850000002421,true,low,false
JRGdamfe,3kqc8jmjhf51pencp85cgosduim3h1,3z2r0dq0jlr276ylm9o31vmzjj6e2z,JRGdamfe,2020-0188,2020-06-04,18:48:13,19:14:32,NA,incomplete,110,filling,1,1,right,Red_Plus_Grid_2.jpg,Red_Circle_Chess_4.jpg,Purple_Triangle_Grid_3.jpg,right,886.0049999996554,true,low,false
JRGdamfe,3kqc8jmjhf51pencp85cgosduim3h1,3z2r0dq0jlr276ylm9o31vmzjj6e2z,JRGdamfe,2020-0188,2020-06-04,18:48:13,19:14:32,NA,incomplete,111,filling,1,1,left,Blue_Star_Stripes_1.jpg,Purple_Triangle_Stripes_2.jpg,Blue_Plus_Dots_3.jpg,left,744.5149999998976,true,low,false
JRGdamfe,3kqc8jmjhf51pencp85cgosduim3h1,3z2r0dq0jlr276ylm9o31vmzjj6e2z,JRGdamfe,2020-0188,2020-06-04,18:48:13,19:14:32,NA,incomplete,112,filling,1,1,right,Red_Triangle_Grid_1.jpg,Red_Plus_Dots_3.jpg,Blue_Star_Grid_2.jpg,right,838.4049999997951,true,low,false
JRGdamfe,3kqc8jmjhf51pencp85cgosduim3h1,3z2r0dq0jlr276ylm9o31vmzjj6e2z,JRGdamfe,2020-0188,2020-06-04,18:48:13,19:14:32,NA,incomplete,113,filling,1,1,right,Purple_Star_Stripes_3.jpg,Purple_Triangle_Grid_2.jpg,Blue_Circle_Stripes_1.jpg,left,736.5749999999534,false,low,false
JRGdamfe,3kqc8jmjhf51pencp85cgosduim3h1,3z2r0dq0jlr276ylm9o31vmzjj6e2z,JRGdamfe,2020-0188,2020-06-04,18:48:13,19:14:32,NA,incomplete,114,filling,1,0,right,Purple_Triangle_Dots_1.jpg,Purple_Plus_Grid_2.jpg,Blue_Star_Dots_3.jpg,right,796.875,true,low,false
JRGdamfe,3kqc8jmjhf51pencp85cgosduim3h1,3z2r0dq0jlr276ylm9o31vmzjj6e2z,JRGdamfe,2020-0188,2020-06-04,18:48:13,19:14:32,NA,incomplete,115,filling,1,1,left,Green_Circle_Chess_3.jpg,Red_Triangle_Chess_2.jpg,Green_Plus_Grid_4.jpg,right,496.8900000003632,false,low,false
JRGdamfe,3kqc8jmjhf51pencp85cgosduim3h1,3z2r0dq0jlr276ylm9o31vmzjj6e2z,JRGdamfe,2020-0188,2020-06-04,18:48:13,19:14:32,NA,incomplete,116,filling,1,1,left,Red_Plus_Dots_1.jpg,Blue_Circle_Dots_4.jpg,Red_Star_Stripes_2.jpg,right,551.4600000001956,false,low,false
JRGdamfe,3kqc8jmjhf51pencp85cgosduim3h1,3z2r0dq0jlr276ylm9o31vmzjj6e2z,JRGdamfe,2020-0188,2020-06-04,18:48:13,19:14:32,NA,incomplete,117,filling,1,1,left,Green_Plus_Stripes_4.jpg,Purple_Star_Stripes_1.jpg,Green_Triangle_Chess_3.jpg,left,998.445000000298,true,low,false
JRGdamfe,3kqc8jmjhf51pencp85cgosduim3h1,3z2r0dq0jlr276ylm9o31vmzjj6e2z,JRGdamfe,2020-0188,2020-06-04,18:48:13,19:14:32,NA,incomplete,118,filling,1,1,left,Blue_Circle_Dots_3.jpg,Purple_Plus_Dots_2.jpg,Blue_Star_Stripes_4.jpg,left,761.4550000003073,true,low,false
JRGdamfe,3kqc8jmjhf51pencp85cgosduim3h1,3z2r0dq0jlr276ylm9o31vmzjj6e2z,JRGdamfe,2020-0188,2020-06-04,18:48:13,19:14:32,NA,incomplete,119,filling,1,0,right,Blue_Circle_Grid_1.jpg,Blue_Star_Chess_3.jpg,Purple_Triangle_Grid_2.jpg,right,767.6399999998976,true,low,false
JRGdamfe,3kqc8jmjhf51pencp85cgosduim3h1,3z2r0dq0jlr276ylm9o31vmzjj6e2z,JRGdamfe,2020-0188,2020-06-04,18:48:13,19:14:32,NA,incomplete,120,gender,2,1,left,C_F_06.jpg,A_F_04.jpg,C_M_05.jpg,NA,NA,NA,low,false
JRGdamfe,3kqc8jmjhf51pencp85cgosduim3h1,3z2r0dq0jlr276ylm9o31vmzjj6e2z,JRGdamfe,2020-0188,2020-06-04,18:48:13,19:14:32,NA,incomplete,121,gender,2,1,right,A_F_07.jpg,A_M_06.jpg,C_F_14.jpg,right,1110.4850000001024,true,low,false
JRGdamfe,3kqc8jmjhf51pencp85cgosduim3h1,3z2r0dq0jlr276ylm9o31vmzjj6e2z,JRGdamfe,2020-0188,2020-06-04,18:48:13,19:14:32,NA,incomplete,122,gender,2,1,right,C_M_01.jpg,C_F_05.jpg,A_M_10.jpg,right,914.9149999998044,true,low,false
JRGdamfe,3kqc8jmjhf51pencp85cgosduim3h1,3z2r0dq0jlr276ylm9o31vmzjj6e2z,JRGdamfe,2020-0188,2020-06-04,18:48:13,19:14:32,NA,incomplete,123,gender,2,1,right,A_F_05.jpg,A_M_11.jpg,C_F_07.jpg,right,1024.2949999996927,true,low,false
JRGdamfe,3kqc8jmjhf51pencp85cgosduim3h1,3z2r0dq0jlr276ylm9o31vmzjj6e2z,JRGdamfe,2020-0188,2020-06-04,18:48:13,19:14:32,NA,incomplete,124,gender,2,1,left,C_M_07.jpg,A_M_05.jpg,C_F_01.jpg,left,688.9999999997672,true,low,false
JRGdamfe,3kqc8jmjhf51pencp85cgosduim3h1,3z2r0dq0jlr276ylm9o31vmzjj6e2z,JRGdamfe,2020-0188,2020-06-04,18:48:13,19:14:32,NA,incomplete,125,gender,2,1,left,A_F_02.jpg,C_F_01.jpg,A_M_08.jpg,left,1036.6899999999441,true,low,false
JRGdamfe,3kqc8jmjhf51pencp85cgosduim3h1,3z2r0dq0jlr276ylm9o31vmzjj6e2z,JRGdamfe,2020-0188,2020-06-04,18:48:13,19:14:32,NA,incomplete,126,gender,2,0,right,A_F_13.jpg,A_M_03.jpg,C_F_09.jpg,right,917.9050000002608,true,low,false
JRGdamfe,3kqc8jmjhf51pencp85cgosduim3h1,3z2r0dq0jlr276ylm9o31vmzjj6e2z,JRGdamfe,2020-0188,2020-06-04,18:48:13,19:14:32,NA,incomplete,127,gender,2,1,left,C_F_02.jpg,A_F_12.jpg,C_M_06.jpg,left,605.4850000001024,true,low,false
JRGdamfe,3kqc8jmjhf51pencp85cgosduim3h1,3z2r0dq0jlr276ylm9o31vmzjj6e2z,JRGdamfe,2020-0188,2020-06-04,18:48:13,19:14:32,NA,incomplete,128,gender,2,1,right,A_M_02.jpg,A_F_03.jpg,C_M_06.jpg,right,797.5150000003632,true,low,false
JRGdamfe,3kqc8jmjhf51pencp85cgosduim3h1,3z2r0dq0jlr276ylm9o31vmzjj6e2z,JRGdamfe,2020-0188,2020-06-04,18:48:13,19:14:32,NA,incomplete,129,gender,2,0,right,C_F_10.jpg,C_M_14.jpg,A_F_12.jpg,right,697.3449999999721,true,low,false
JRGdamfe,3kqc8jmjhf51pencp85cgosduim3h1,3z2r0dq0jlr276ylm9o31vmzjj6e2z,JRGdamfe,2020-0188,2020-06-04,18:48:13,19:14:32,NA,incomplete,130,gender,2,1,right,C_M_01.jpg,C_F_13.jpg,A_M_14.jpg,right,830.2399999997579,true,low,false
JRGdamfe,3kqc8jmjhf51pencp85cgosduim3h1,3z2r0dq0jlr276ylm9o31vmzjj6e2z,JRGdamfe,2020-0188,2020-06-04,18:48:13,19:14:32,NA,incomplete,131,gender,2,1,left,C_M_13.jpg,A_M_03.jpg,C_F_12.jpg,left,776.8100000000559,true,low,false
JRGdamfe,3kqc8jmjhf51pencp85cgosduim3h1,3z2r0dq0jlr276ylm9o31vmzjj6e2z,JRGdamfe,2020-0188,2020-06-04,18:48:13,19:14:32,NA,incomplete,132,gender,2,1,right,C_F_06.jpg,C_M_16.jpg,A_F_02.jpg,right,674.2800000002608,true,low,false
JRGdamfe,3kqc8jmjhf51pencp85cgosduim3h1,3z2r0dq0jlr276ylm9o31vmzjj6e2z,JRGdamfe,2020-0188,2020-06-04,18:48:13,19:14:32,NA,incomplete,133,gender,2,0,right,C_M_15.jpg,C_F_13.jpg,A_M_16.jpg,right,651.2899999998044,true,low,false
JRGdamfe,3kqc8jmjhf51pencp85cgosduim3h1,3z2r0dq0jlr276ylm9o31vmzjj6e2z,JRGdamfe,2020-0188,2020-06-04,18:48:13,19:14:32,NA,incomplete,134,gender,2,1,left,C_F_07.jpg,A_F_16.jpg,C_M_01.jpg,left,705.1400000001304,true,low,false
JRGdamfe,3kqc8jmjhf51pencp85cgosduim3h1,3z2r0dq0jlr276ylm9o31vmzjj6e2z,JRGdamfe,2020-0188,2020-06-04,18:48:13,19:14:32,NA,incomplete,135,gender,2,1,left,A_F_07.jpg,C_F_15.jpg,A_M_13.jpg,left,832.5600000002887,true,low,false
JRGdamfe,3kqc8jmjhf51pencp85cgosduim3h1,3z2r0dq0jlr276ylm9o31vmzjj6e2z,JRGdamfe,2020-0188,2020-06-04,18:48:13,19:14:32,NA,incomplete,136,gender,2,1,left,C_M_09.jpg,A_M_08.jpg,C_F_07.jpg,left,922.1699999999255,true,low,false
JRGdamfe,3kqc8jmjhf51pencp85cgosduim3h1,3z2r0dq0jlr276ylm9o31vmzjj6e2z,JRGdamfe,2020-0188,2020-06-04,18:48:13,19:14:32,NA,incomplete,137,gender,2,1,left,A_F_06.jpg,C_F_14.jpg,A_M_02.jpg,left,809.3050000001676,true,low,false
JRGdamfe,3kqc8jmjhf51pencp85cgosduim3h1,3z2r0dq0jlr276ylm9o31vmzjj6e2z,JRGdamfe,2020-0188,2020-06-04,18:48:13,19:14:32,NA,incomplete,138,gender,2,1,right,A_F_09.jpg,A_M_13.jpg,C_F_15.jpg,right,694.9499999999534,true,low,false
JRGdamfe,3kqc8jmjhf51pencp85cgosduim3h1,3z2r0dq0jlr276ylm9o31vmzjj6e2z,JRGdamfe,2020-0188,2020-06-04,18:48:13,19:14:32,NA,incomplete,139,gender,2,0,left,A_F_03.jpg,C_F_04.jpg,A_M_13.jpg,left,845.3850000000093,true,low,false
JRGdamfe,3kqc8jmjhf51pencp85cgosduim3h1,3z2r0dq0jlr276ylm9o31vmzjj6e2z,JRGdamfe,2020-0188,2020-06-04,18:48:13,19:14:32,NA,incomplete,140,race,3,1,right,C_M_05.jpg,A_M_11.jpg,C_F_09.jpg,left,831.8300000000745,false,low,false
JRGdamfe,3kqc8jmjhf51pencp85cgosduim3h1,3z2r0dq0jlr276ylm9o31vmzjj6e2z,JRGdamfe,2020-0188,2020-06-04,18:48:13,19:14:32,NA,incomplete,141,race,3,1,right,C_M_12.jpg,A_M_09.jpg,C_F_11.jpg,left,970.5949999997392,false,low,false
JRGdamfe,3kqc8jmjhf51pencp85cgosduim3h1,3z2r0dq0jlr276ylm9o31vmzjj6e2z,JRGdamfe,2020-0188,2020-06-04,18:48:13,19:14:32,NA,incomplete,142,race,3,1,right,A_M_13.jpg,C_M_02.jpg,A_F_16.jpg,right,1000.9999999997672,true,low,false
JRGdamfe,3kqc8jmjhf51pencp85cgosduim3h1,3z2r0dq0jlr276ylm9o31vmzjj6e2z,JRGdamfe,2020-0188,2020-06-04,18:48:13,19:14:32,NA,incomplete,143,race,3,1,right,C_M_09.jpg,A_M_04.jpg,C_F_06.jpg,right,949.4899999999907,true,low,false
JRGdamfe,3kqc8jmjhf51pencp85cgosduim3h1,3z2r0dq0jlr276ylm9o31vmzjj6e2z,JRGdamfe,2020-0188,2020-06-04,18:48:13,19:14:32,NA,incomplete,144,race,3,1,left,C_F_02.jpg,C_M_01.jpg,A_F_12.jpg,left,983.4500000001863,true,low,false
JRGdamfe,3kqc8jmjhf51pencp85cgosduim3h1,3z2r0dq0jlr276ylm9o31vmzjj6e2z,JRGdamfe,2020-0188,2020-06-04,18:48:13,19:14:32,NA,incomplete,145,race,3,0,left,C_F_11.jpg,C_M_03.jpg,A_F_15.jpg,left,834.1599999999162,true,low,false
JRGdamfe,3kqc8jmjhf51pencp85cgosduim3h1,3z2r0dq0jlr276ylm9o31vmzjj6e2z,JRGdamfe,2020-0188,2020-06-04,18:48:13,19:14:32,NA,incomplete,146,race,3,1,left,C_M_10.jpg,C_F_06.jpg,A_M_02.jpg,left,973.3950000000186,true,low,false
JRGdamfe,3kqc8jmjhf51pencp85cgosduim3h1,3z2r0dq0jlr276ylm9o31vmzjj6e2z,JRGdamfe,2020-0188,2020-06-04,18:48:13,19:14:32,NA,incomplete,147,race,3,1,right,C_F_16.jpg,A_F_02.jpg,C_M_08.jpg,right,940.3999999999069,true,low,false
JRGdamfe,3kqc8jmjhf51pencp85cgosduim3h1,3z2r0dq0jlr276ylm9o31vmzjj6e2z,JRGdamfe,2020-0188,2020-06-04,18:48:13,19:14:32,NA,incomplete,148,race,3,1,right,A_F_02.jpg,C_F_10.jpg,A_M_16.jpg,right,1070.530000000028,true,low,false
JRGdamfe,3kqc8jmjhf51pencp85cgosduim3h1,3z2r0dq0jlr276ylm9o31vmzjj6e2z,JRGdamfe,2020-0188,2020-06-04,18:48:13,19:14:32,NA,incomplete,149,race,3,1,left,A_M_10.jpg,A_F_09.jpg,C_M_02.jpg,left,829.2699999997858,true,low,false
JRGdamfe,3kqc8jmjhf51pencp85cgosduim3h1,3z2r0dq0jlr276ylm9o31vmzjj6e2z,JRGdamfe,2020-0188,2020-06-04,18:48:13,19:14:32,NA,incomplete,150,race,3,1,left,C_M_07.jpg,C_F_13.jpg,A_M_11.jpg,left,1087.1550000002608,true,low,false
JRGdamfe,3kqc8jmjhf51pencp85cgosduim3h1,3z2r0dq0jlr276ylm9o31vmzjj6e2z,JRGdamfe,2020-0188,2020-06-04,18:48:13,19:14:32,NA,incomplete,151,race,3,0,right,A_M_01.jpg,C_M_07.jpg,A_F_12.jpg,right,966.9149999998044,true,low,false
JRGdamfe,3kqc8jmjhf51pencp85cgosduim3h1,3z2r0dq0jlr276ylm9o31vmzjj6e2z,JRGdamfe,2020-0188,2020-06-04,18:48:13,19:14:32,NA,incomplete,152,race,3,1,right,C_M_14.jpg,A_M_09.jpg,C_F_01.jpg,right,941.6799999999348,true,low,false
JRGdamfe,3kqc8jmjhf51pencp85cgosduim3h1,3z2r0dq0jlr276ylm9o31vmzjj6e2z,JRGdamfe,2020-0188,2020-06-04,18:48:13,19:14:32,NA,incomplete,153,race,3,1,right,C_M_14.jpg,A_M_10.jpg,C_F_11.jpg,right,992.8899999998976,true,low,false
JRGdamfe,3kqc8jmjhf51pencp85cgosduim3h1,3z2r0dq0jlr276ylm9o31vmzjj6e2z,JRGdamfe,2020-0188,2020-06-04,18:48:13,19:14:32,NA,incomplete,154,race,3,1,left,A_F_12.jpg,A_M_10.jpg,C_F_02.jpg,left,850.8699999996461,true,low,false
JRGdamfe,3kqc8jmjhf51pencp85cgosduim3h1,3z2r0dq0jlr276ylm9o31vmzjj6e2z,JRGdamfe,2020-0188,2020-06-04,18:48:13,19:14:32,NA,incomplete,155,race,3,1,left,C_M_11.jpg,C_F_01.jpg,A_M_10.jpg,left,767.9749999998603,true,low,false
JRGdamfe,3kqc8jmjhf51pencp85cgosduim3h1,3z2r0dq0jlr276ylm9o31vmzjj6e2z,JRGdamfe,2020-0188,2020-06-04,18:48:13,19:14:32,NA,incomplete,156,race,3,1,left,C_F_16.jpg,C_M_11.jpg,A_F_08.jpg,left,807.5800000003073,true,low,false
JRGdamfe,3kqc8jmjhf51pencp85cgosduim3h1,3z2r0dq0jlr276ylm9o31vmzjj6e2z,JRGdamfe,2020-0188,2020-06-04,18:48:13,19:14:32,NA,incomplete,157,race,3,1,left,A_M_07.jpg,A_F_13.jpg,C_M_05.jpg,left,862.1650000000373,true,low,false
JRGdamfe,3kqc8jmjhf51pencp85cgosduim3h1,3z2r0dq0jlr276ylm9o31vmzjj6e2z,JRGdamfe,2020-0188,2020-06-04,18:48:13,19:14:32,NA,incomplete,158,race,3,0,right,A_M_08.jpg,C_M_10.jpg,A_F_05.jpg,right,1220.7250000000931,true,low,false
JRGdamfe,3kqc8jmjhf51pencp85cgosduim3h1,3z2r0dq0jlr276ylm9o31vmzjj6e2z,JRGdamfe,2020-0188,2020-06-04,18:48:13,19:14:32,NA,incomplete,159,race,3,1,right,A_M_05.jpg,C_M_04.jpg,A_F_16.jpg,right,946.1650000002701,true,low,false
JRGdamfe,3kqc8jmjhf51pencp85cgosduim3h1,3z2r0dq0jlr276ylm9o31vmzjj6e2z,JRGdamfe,2020-0188,2020-06-04,18:48:13,19:14:32,NA,incomplete,160,gender,2,1,right,A_M_03.jpg,A_F_12.jpg,C_M_07.jpg,left,853.4899999999907,false,low,false
JRGdamfe,3kqc8jmjhf51pencp85cgosduim3h1,3z2r0dq0jlr276ylm9o31vmzjj6e2z,JRGdamfe,2020-0188,2020-06-04,18:48:13,19:14:32,NA,incomplete,161,gender,2,0,right,A_M_05.jpg,A_F_12.jpg,C_M_07.jpg,left,897.0549999999348,false,low,false
JRGdamfe,3kqc8jmjhf51pencp85cgosduim3h1,3z2r0dq0jlr276ylm9o31vmzjj6e2z,JRGdamfe,2020-0188,2020-06-04,18:48:13,19:14:32,NA,incomplete,162,gender,2,1,left,A_F_08.jpg,C_F_10.jpg,A_M_12.jpg,right,942.0850000001956,false,low,false
JRGdamfe,3kqc8jmjhf51pencp85cgosduim3h1,3z2r0dq0jlr276ylm9o31vmzjj6e2z,JRGdamfe,2020-0188,2020-06-04,18:48:13,19:14:32,NA,incomplete,163,gender,2,1,left,A_M_12.jpg,C_M_03.jpg,A_F_01.jpg,right,952.8000000000466,false,low,false
JRGdamfe,3kqc8jmjhf51pencp85cgosduim3h1,3z2r0dq0jlr276ylm9o31vmzjj6e2z,JRGdamfe,2020-0188,2020-06-04,18:48:13,19:14:32,NA,incomplete,164,gender,2,1,left,A_F_12.jpg,C_F_02.jpg,A_M_05.jpg,left,797.9399999999441,true,low,false
JRGdamfe,3kqc8jmjhf51pencp85cgosduim3h1,3z2r0dq0jlr276ylm9o31vmzjj6e2z,JRGdamfe,2020-0188,2020-06-04,18:48:13,19:14:32,NA,incomplete,165,gender,2,0,left,A_M_11.jpg,C_M_15.jpg,A_F_12.jpg,left,930.1050000002142,true,low,false
JRGdamfe,3kqc8jmjhf51pencp85cgosduim3h1,3z2r0dq0jlr276ylm9o31vmzjj6e2z,JRGdamfe,2020-0188,2020-06-04,18:48:13,19:14:32,NA,incomplete,166,gender,2,1,right,A_M_04.jpg,A_F_16.jpg,C_M_12.jpg,left,785.9499999999534,false,low,false
JRGdamfe,3kqc8jmjhf51pencp85cgosduim3h1,3z2r0dq0jlr276ylm9o31vmzjj6e2z,JRGdamfe,2020-0188,2020-06-04,18:48:13,19:14:32,NA,incomplete,167,gender,2,1,left,A_F_10.jpg,C_F_12.jpg,A_M_16.jpg,left,884.9250000002794,true,low,false
JRGdamfe,3kqc8jmjhf51pencp85cgosduim3h1,3z2r0dq0jlr276ylm9o31vmzjj6e2z,JRGdamfe,2020-0188,2020-06-04,18:48:13,19:14:32,NA,incomplete,168,gender,2,1,left,A_F_01.jpg,C_F_03.jpg,A_M_14.jpg,left,880.7149999996182,true,low,false
JRGdamfe,3kqc8jmjhf51pencp85cgosduim3h1,3z2r0dq0jlr276ylm9o31vmzjj6e2z,JRGdamfe,2020-0188,2020-06-04,18:48:13,19:14:32,NA,incomplete,169,gender,2,1,right,C_F_14.jpg,C_M_10.jpg,A_F_15.jpg,right,768.8900000003632,true,low,false
JRGdamfe,3kqc8jmjhf51pencp85cgosduim3h1,3z2r0dq0jlr276ylm9o31vmzjj6e2z,JRGdamfe,2020-0188,2020-06-04,18:48:13,19:14:32,NA,incomplete,170,gender,2,1,left,A_M_12.jpg,C_M_02.jpg,A_F_01.jpg,left,657.5800000000745,true,low,false
JRGdamfe,3kqc8jmjhf51pencp85cgosduim3h1,3z2r0dq0jlr276ylm9o31vmzjj6e2z,JRGdamfe,2020-0188,2020-06-04,18:48:13,19:14:32,NA,incomplete,171,gender,2,1,left,C_F_03.jpg,A_F_06.jpg,C_M_11.jpg,left,992.2249999998603,true,low,false
JRGdamfe,3kqc8jmjhf51pencp85cgosduim3h1,3z2r0dq0jlr276ylm9o31vmzjj6e2z,JRGdamfe,2020-0188,2020-06-04,18:48:13,19:14:32,NA,incomplete,172,gender,2,1,left,A_M_15.jpg,C_M_06.jpg,A_F_01.jpg,left,994.2950000003912,true,low,false
JRGdamfe,3kqc8jmjhf51pencp85cgosduim3h1,3z2r0dq0jlr276ylm9o31vmzjj6e2z,JRGdamfe,2020-0188,2020-06-04,18:48:13,19:14:32,NA,incomplete,173,gender,2,1,right,C_F_04.jpg,C_M_11.jpg,A_F_14.jpg,right,989.2749999999069,true,low,false
JRGdamfe,3kqc8jmjhf51pencp85cgosduim3h1,3z2r0dq0jlr276ylm9o31vmzjj6e2z,JRGdamfe,2020-0188,2020-06-04,18:48:13,19:14:32,NA,incomplete,174,gender,2,1,left,C_M_08.jpg,A_M_02.jpg,C_F_06.jpg,left,799.2199999999721,true,low,false
JRGdamfe,3kqc8jmjhf51pencp85cgosduim3h1,3z2r0dq0jlr276ylm9o31vmzjj6e2z,JRGdamfe,2020-0188,2020-06-04,18:48:13,19:14:32,NA,incomplete,175,gender,2,0,right,A_M_10.jpg,A_F_11.jpg,C_M_06.jpg,right,1404.9350000000559,true,low,false
JRGdamfe,3kqc8jmjhf51pencp85cgosduim3h1,3z2r0dq0jlr276ylm9o31vmzjj6e2z,JRGdamfe,2020-0188,2020-06-04,18:48:13,19:14:32,NA,incomplete,176,gender,2,1,left,C_F_14.jpg,A_F_01.jpg,C_M_06.jpg,left,701.9199999999255,true,low,false
JRGdamfe,3kqc8jmjhf51pencp85cgosduim3h1,3z2r0dq0jlr276ylm9o31vmzjj6e2z,JRGdamfe,2020-0188,2020-06-04,18:48:13,19:14:32,NA,incomplete,177,gender,2,0,left,A_F_06.jpg,C_F_13.jpg,A_M_05.jpg,left,739.0150000001304,true,low,false
JRGdamfe,3kqc8jmjhf51pencp85cgosduim3h1,3z2r0dq0jlr276ylm9o31vmzjj6e2z,JRGdamfe,2020-0188,2020-06-04,18:48:13,19:14:32,NA,incomplete,178,gender,2,1,right,C_M_02.jpg,C_F_09.jpg,A_M_10.jpg,right,735.3350000004284,true,low,false
JRGdamfe,3kqc8jmjhf51pencp85cgosduim3h1,3z2r0dq0jlr276ylm9o31vmzjj6e2z,JRGdamfe,2020-0188,2020-06-04,18:48:13,19:14:32,NA,incomplete,179,gender,2,1,right,C_F_14.jpg,C_M_04.jpg,A_F_13.jpg,right,1170.3799999998882,true,low,false
JRGdamfe,3kqc8jmjhf51pencp85cgosduim3h1,3z2r0dq0jlr276ylm9o31vmzjj6e2z,JRGdamfe,2020-0188,2020-06-04,18:48:13,19:14:32,NA,incomplete,180,race,3,1,right,C_M_13.jpg,A_M_08.jpg,C_F_04.jpg,left,934.6500000001397,false,low,false
JRGdamfe,3kqc8jmjhf51pencp85cgosduim3h1,3z2r0dq0jlr276ylm9o31vmzjj6e2z,JRGdamfe,2020-0188,2020-06-04,18:48:13,19:14:32,NA,incomplete,181,race,3,1,left,C_F_09.jpg,C_M_01.jpg,A_F_02.jpg,right,768.8499999998603,false,low,false
JRGdamfe,3kqc8jmjhf51pencp85cgosduim3h1,3z2r0dq0jlr276ylm9o31vmzjj6e2z,JRGdamfe,2020-0188,2020-06-04,18:48:13,19:14:32,NA,incomplete,182,race,3,1,right,C_F_05.jpg,A_F_10.jpg,C_M_04.jpg,right,920.4249999998137,true,low,false
JRGdamfe,3kqc8jmjhf51pencp85cgosduim3h1,3z2r0dq0jlr276ylm9o31vmzjj6e2z,JRGdamfe,2020-0188,2020-06-04,18:48:13,19:14:32,NA,incomplete,183,race,3,1,left,A_M_08.jpg,A_F_05.jpg,C_M_16.jpg,left,870.6899999997113,true,low,false
JRGdamfe,3kqc8jmjhf51pencp85cgosduim3h1,3z2r0dq0jlr276ylm9o31vmzjj6e2z,JRGdamfe,2020-0188,2020-06-04,18:48:13,19:14:32,NA,incomplete,184,race,3,1,left,C_F_08.jpg,C_M_16.jpg,A_F_04.jpg,left,832.4599999999627,true,low,false
JRGdamfe,3kqc8jmjhf51pencp85cgosduim3h1,3z2r0dq0jlr276ylm9o31vmzjj6e2z,JRGdamfe,2020-0188,2020-06-04,18:48:13,19:14:32,NA,incomplete,185,race,3,1,right,A_M_05.jpg,C_M_08.jpg,A_F_09.jpg,right,866.4799999997485,true,low,false
JRGdamfe,3kqc8jmjhf51pencp85cgosduim3h1,3z2r0dq0jlr276ylm9o31vmzjj6e2z,JRGdamfe,2020-0188,2020-06-04,18:48:13,19:14:32,NA,incomplete,186,race,3,1,left,C_M_12.jpg,C_F_09.jpg,A_M_02.jpg,left,864.9850000003353,true,low,false
JRGdamfe,3kqc8jmjhf51pencp85cgosduim3h1,3z2r0dq0jlr276ylm9o31vmzjj6e2z,JRGdamfe,2020-0188,2020-06-04,18:48:13,19:14:32,NA,incomplete,187,race,3,1,right,A_M_15.jpg,C_M_02.jpg,A_F_14.jpg,right,751.8199999998324,true,low,false
JRGdamfe,3kqc8jmjhf51pencp85cgosduim3h1,3z2r0dq0jlr276ylm9o31vmzjj6e2z,JRGdamfe,2020-0188,2020-06-04,18:48:13,19:14:32,NA,incomplete,188,race,3,1,left,C_F_11.jpg,C_M_04.jpg,A_F_12.jpg,left,822.0500000002794,true,low,false
JRGdamfe,3kqc8jmjhf51pencp85cgosduim3h1,3z2r0dq0jlr276ylm9o31vmzjj6e2z,JRGdamfe,2020-0188,2020-06-04,18:48:13,19:14:32,NA,incomplete,189,race,3,0,left,A_F_10.jpg,A_M_13.jpg,C_F_08.jpg,right,774.6099999998696,false,low,false
JRGdamfe,3kqc8jmjhf51pencp85cgosduim3h1,3z2r0dq0jlr276ylm9o31vmzjj6e2z,JRGdamfe,2020-0188,2020-06-04,18:48:13,19:14:32,NA,incomplete,190,race,3,1,left,C_F_02.jpg,C_M_13.jpg,A_F_09.jpg,left,879.6550000002608,true,low,false
JRGdamfe,3kqc8jmjhf51pencp85cgosduim3h1,3z2r0dq0jlr276ylm9o31vmzjj6e2z,JRGdamfe,2020-0188,2020-06-04,18:48:13,19:14:32,NA,incomplete,191,race,3,1,left,A_F_16.jpg,A_M_10.jpg,C_F_09.jpg,right,736.8000000000466,false,low,false
JRGdamfe,3kqc8jmjhf51pencp85cgosduim3h1,3z2r0dq0jlr276ylm9o31vmzjj6e2z,JRGdamfe,2020-0188,2020-06-04,18:48:13,19:14:32,NA,incomplete,192,race,3,1,left,C_F_03.jpg,C_M_10.jpg,A_F_14.jpg,right,1195.1949999998324,false,low,false
JRGdamfe,3kqc8jmjhf51pencp85cgosduim3h1,3z2r0dq0jlr276ylm9o31vmzjj6e2z,JRGdamfe,2020-0188,2020-06-04,18:48:13,19:14:32,NA,incomplete,193,race,3,1,right,C_M_01.jpg,A_M_08.jpg,C_F_04.jpg,right,949.6500000001397,true,low,false
JRGdamfe,3kqc8jmjhf51pencp85cgosduim3h1,3z2r0dq0jlr276ylm9o31vmzjj6e2z,JRGdamfe,2020-0188,2020-06-04,18:48:13,19:14:32,NA,incomplete,194,race,3,1,right,A_F_09.jpg,C_F_07.jpg,A_M_05.jpg,right,977.7699999997858,true,low,false
JRGdamfe,3kqc8jmjhf51pencp85cgosduim3h1,3z2r0dq0jlr276ylm9o31vmzjj6e2z,JRGdamfe,2020-0188,2020-06-04,18:48:13,19:14:32,NA,incomplete,195,race,3,1,left,C_M_16.jpg,C_F_07.jpg,A_M_03.jpg,left,961.8000000000466,true,low,false
JRGdamfe,3kqc8jmjhf51pencp85cgosduim3h1,3z2r0dq0jlr276ylm9o31vmzjj6e2z,JRGdamfe,2020-0188,2020-06-04,18:48:13,19:14:32,NA,incomplete,196,race,3,1,left,C_F_10.jpg,C_M_04.jpg,A_F_15.jpg,left,879.285000000149,true,low,false
JRGdamfe,3kqc8jmjhf51pencp85cgosduim3h1,3z2r0dq0jlr276ylm9o31vmzjj6e2z,JRGdamfe,2020-0188,2020-06-04,18:48:13,19:14:32,NA,incomplete,197,race,3,0,right,C_M_08.jpg,A_M_13.jpg,C_F_06.jpg,right,752.190000000177,true,low,false
JRGdamfe,3kqc8jmjhf51pencp85cgosduim3h1,3z2r0dq0jlr276ylm9o31vmzjj6e2z,JRGdamfe,2020-0188,2020-06-04,18:48:13,19:14:32,NA,incomplete,198,race,3,1,left,C_F_01.jpg,C_M_05.jpg,A_F_10.jpg,left,767.0649999999441,true,low,false
JRGdamfe,3kqc8jmjhf51pencp85cgosduim3h1,3z2r0dq0jlr276ylm9o31vmzjj6e2z,JRGdamfe,2020-0188,2020-06-04,18:48:13,19:14:32,NA,incomplete,199,race,3,0,left,C_F_11.jpg,C_M_10.jpg,A_F_12.jpg,left,1140.559999999823,true,low,false
JRGdamfe,3kqc8jmjhf51pencp85cgosduim3h1,3z2r0dq0jlr276ylm9o31vmzjj6e2z,JRGdamfe,2020-0188,2020-06-04,18:48:13,19:14:32,NA,incomplete,200,gender,2,1,right,C_F_15.jpg,C_M_02.jpg,A_F_10.jpg,left,807.8899999998976,false,low,false
JRGdamfe,3kqc8jmjhf51pencp85cgosduim3h1,3z2r0dq0jlr276ylm9o31vmzjj6e2z,JRGdamfe,2020-0188,2020-06-04,18:48:13,19:14:32,NA,incomplete,201,gender,2,0,left,A_M_07.jpg,C_M_13.jpg,A_F_04.jpg,left,1046.0000000004657,true,low,false
JRGdamfe,3kqc8jmjhf51pencp85cgosduim3h1,3z2r0dq0jlr276ylm9o31vmzjj6e2z,JRGdamfe,2020-0188,2020-06-04,18:48:13,19:14:32,NA,incomplete,202,gender,2,1,right,A_F_01.jpg,A_M_04.jpg,C_F_03.jpg,right,920.0300000002608,true,low,false
JRGdamfe,3kqc8jmjhf51pencp85cgosduim3h1,3z2r0dq0jlr276ylm9o31vmzjj6e2z,JRGdamfe,2020-0188,2020-06-04,18:48:13,19:14:32,NA,incomplete,203,gender,2,1,right,A_M_13.jpg,A_F_01.jpg,C_M_04.jpg,right,815.9999999997672,true,low,false
JRGdamfe,3kqc8jmjhf51pencp85cgosduim3h1,3z2r0dq0jlr276ylm9o31vmzjj6e2z,JRGdamfe,2020-0188,2020-06-04,18:48:13,19:14:32,NA,incomplete,204,gender,2,1,left,C_M_14.jpg,A_M_03.jpg,C_F_10.jpg,left,670.6850000000559,true,low,false
JRGdamfe,3kqc8jmjhf51pencp85cgosduim3h1,3z2r0dq0jlr276ylm9o31vmzjj6e2z,JRGdamfe,2020-0188,2020-06-04,18:48:13,19:14:32,NA,incomplete,205,gender,2,1,left,C_M_12.jpg,A_M_02.jpg,C_F_09.jpg,left,688.8100000000559,true,low,false
JRGdamfe,3kqc8jmjhf51pencp85cgosduim3h1,3z2r0dq0jlr276ylm9o31vmzjj6e2z,JRGdamfe,2020-0188,2020-06-04,18:48:13,19:14:32,NA,incomplete,206,gender,2,1,right,C_F_09.jpg,C_M_13.jpg,A_F_01.jpg,right,717.1699999999255,true,low,false
JRGdamfe,3kqc8jmjhf51pencp85cgosduim3h1,3z2r0dq0jlr276ylm9o31vmzjj6e2z,JRGdamfe,2020-0188,2020-06-04,18:48:13,19:14:32,NA,incomplete,207,gender,2,0,right,C_F_14.jpg,C_M_01.jpg,A_F_13.jpg,right,806.1299999998882,true,low,false
JRGdamfe,3kqc8jmjhf51pencp85cgosduim3h1,3z2r0dq0jlr276ylm9o31vmzjj6e2z,JRGdamfe,2020-0188,2020-06-04,18:48:13,19:14:32,NA,incomplete,208,gender,2,1,left,A_F_01.jpg,C_F_12.jpg,A_M_03.jpg,left,580.3100000002887,true,low,false
JRGdamfe,3kqc8jmjhf51pencp85cgosduim3h1,3z2r0dq0jlr276ylm9o31vmzjj6e2z,JRGdamfe,2020-0188,2020-06-04,18:48:13,19:14:32,NA,incomplete,209,gender,2,1,left,A_F_05.jpg,C_F_12.jpg,A_M_02.jpg,left,768.0500000002794,true,low,false
JRGdamfe,3kqc8jmjhf51pencp85cgosduim3h1,3z2r0dq0jlr276ylm9o31vmzjj6e2z,JRGdamfe,2020-0188,2020-06-04,18:48:13,19:14:32,NA,incomplete,210,gender,2,0,left,C_F_11.jpg,A_F_10.jpg,C_M_04.jpg,left,736.0850000001956,true,low,false
JRGdamfe,3kqc8jmjhf51pencp85cgosduim3h1,3z2r0dq0jlr276ylm9o31vmzjj6e2z,JRGdamfe,2020-0188,2020-06-04,18:48:13,19:14:32,NA,incomplete,211,gender,2,1,left,C_M_14.jpg,A_M_15.jpg,C_F_05.jpg,left,1282.8599999998696,true,low,false
JRGdamfe,3kqc8jmjhf51pencp85cgosduim3h1,3z2r0dq0jlr276ylm9o31vmzjj6e2z,JRGdamfe,2020-0188,2020-06-04,18:48:13,19:14:32,NA,incomplete,212,gender,2,1,right,A_M_11.jpg,A_F_08.jpg,C_M_09.jpg,right,737.1750000002794,true,low,false
JRGdamfe,3kqc8jmjhf51pencp85cgosduim3h1,3z2r0dq0jlr276ylm9o31vmzjj6e2z,JRGdamfe,2020-0188,2020-06-04,18:48:13,19:14:32,NA,incomplete,213,gender,2,0,right,C_M_11.jpg,C_F_10.jpg,A_M_14.jpg,right,779.6599999996834,true,low,false
JRGdamfe,3kqc8jmjhf51pencp85cgosduim3h1,3z2r0dq0jlr276ylm9o31vmzjj6e2z,JRGdamfe,2020-0188,2020-06-04,18:48:13,19:14:32,NA,incomplete,214,gender,2,1,right,A_M_02.jpg,A_F_15.jpg,C_M_08.jpg,right,911.4199999999255,true,low,false
JRGdamfe,3kqc8jmjhf51pencp85cgosduim3h1,3z2r0dq0jlr276ylm9o31vmzjj6e2z,JRGdamfe,2020-0188,2020-06-04,18:48:13,19:14:32,NA,incomplete,215,gender,2,1,left,A_M_12.jpg,C_M_05.jpg,A_F_04.jpg,left,941.0950000002049,true,low,false
JRGdamfe,3kqc8jmjhf51pencp85cgosduim3h1,3z2r0dq0jlr276ylm9o31vmzjj6e2z,JRGdamfe,2020-0188,2020-06-04,18:48:13,19:14:32,NA,incomplete,216,gender,2,1,left,A_F_08.jpg,C_F_01.jpg,A_M_09.jpg,left,663.9199999999255,true,low,false
JRGdamfe,3kqc8jmjhf51pencp85cgosduim3h1,3z2r0dq0jlr276ylm9o31vmzjj6e2z,JRGdamfe,2020-0188,2020-06-04,18:48:13,19:14:32,NA,incomplete,217,gender,2,1,right,A_F_03.jpg,A_M_07.jpg,C_F_09.jpg,right,662.8950000000186,true,low,false
JRGdamfe,3kqc8jmjhf51pencp85cgosduim3h1,3z2r0dq0jlr276ylm9o31vmzjj6e2z,JRGdamfe,2020-0188,2020-06-04,18:48:13,19:14:32,NA,incomplete,218,gender,2,1,left,C_F_08.jpg,A_F_13.jpg,C_M_07.jpg,left,696.809999999823,true,low,false
JRGdamfe,3kqc8jmjhf51pencp85cgosduim3h1,3z2r0dq0jlr276ylm9o31vmzjj6e2z,JRGdamfe,2020-0188,2020-06-04,18:48:13,19:14:32,NA,incomplete,219,gender,2,1,right,A_F_06.jpg,A_M_04.jpg,C_F_09.jpg,right,726.0999999996275,true,low,false
JRGdamfe,3kqc8jmjhf51pencp85cgosduim3h1,3z2r0dq0jlr276ylm9o31vmzjj6e2z,JRGdamfe,2020-0188,2020-06-04,18:48:13,19:14:32,NA,incomplete,220,race,3,0,left,A_M_10.jpg,A_F_11.jpg,C_M_14.jpg,left,848.1800000001676,true,low,false
JRGdamfe,3kqc8jmjhf51pencp85cgosduim3h1,3z2r0dq0jlr276ylm9o31vmzjj6e2z,JRGdamfe,2020-0188,2020-06-04,18:48:13,19:14:32,NA,incomplete,221,race,3,1,left,C_F_03.jpg,C_M_05.jpg,A_F_04.jpg,right,813.1549999997951,false,low,false
JRGdamfe,3kqc8jmjhf51pencp85cgosduim3h1,3z2r0dq0jlr276ylm9o31vmzjj6e2z,JRGdamfe,2020-0188,2020-06-04,18:48:13,19:14:32,NA,incomplete,222,race,3,1,right,C_M_07.jpg,A_M_11.jpg,C_F_03.jpg,left,699.4900000004563,false,low,false
JRGdamfe,3kqc8jmjhf51pencp85cgosduim3h1,3z2r0dq0jlr276ylm9o31vmzjj6e2z,JRGdamfe,2020-0188,2020-06-04,18:48:13,19:14:32,NA,incomplete,223,race,3,1,left,C_F_11.jpg,C_M_15.jpg,A_F_10.jpg,left,744.6850000002887,true,low,false
JRGdamfe,3kqc8jmjhf51pencp85cgosduim3h1,3z2r0dq0jlr276ylm9o31vmzjj6e2z,JRGdamfe,2020-0188,2020-06-04,18:48:13,19:14:32,NA,incomplete,224,race,3,1,left,A_M_13.jpg,A_F_15.jpg,C_M_11.jpg,left,732.2349999998696,true,low,false
JRGdamfe,3kqc8jmjhf51pencp85cgosduim3h1,3z2r0dq0jlr276ylm9o31vmzjj6e2z,JRGdamfe,2020-0188,2020-06-04,18:48:13,19:14:32,NA,incomplete,225,race,3,0,left,C_F_12.jpg,C_M_16.jpg,A_F_05.jpg,right,865.0699999998324,false,low,false
JRGdamfe,3kqc8jmjhf51pencp85cgosduim3h1,3z2r0dq0jlr276ylm9o31vmzjj6e2z,JRGdamfe,2020-0188,2020-06-04,18:48:13,19:14:32,NA,incomplete,226,race,3,1,right,A_F_03.jpg,C_F_08.jpg,A_M_07.jpg,left,639.7299999997485,false,low,false
JRGdamfe,3kqc8jmjhf51pencp85cgosduim3h1,3z2r0dq0jlr276ylm9o31vmzjj6e2z,JRGdamfe,2020-0188,2020-06-04,18:48:13,19:14:32,NA,incomplete,227,race,3,1,left,C_M_15.jpg,C_F_14.jpg,A_M_07.jpg,right,748.5550000001676,false,low,false
JRGdamfe,3kqc8jmjhf51pencp85cgosduim3h1,3z2r0dq0jlr276ylm9o31vmzjj6e2z,JRGdamfe,2020-0188,2020-06-04,18:48:13,19:14:32,NA,incomplete,228,race,3,1,right,C_M_11.jpg,A_M_03.jpg,C_F_04.jpg,right,729.0800000000745,true,low,false
JRGdamfe,3kqc8jmjhf51pencp85cgosduim3h1,3z2r0dq0jlr276ylm9o31vmzjj6e2z,JRGdamfe,2020-0188,2020-06-04,18:48:13,19:14:32,NA,incomplete,229,race,3,1,right,A_M_14.jpg,C_M_10.jpg,A_F_15.jpg,right,827.2949999999255,true,low,false
JRGdamfe,3kqc8jmjhf51pencp85cgosduim3h1,3z2r0dq0jlr276ylm9o31vmzjj6e2z,JRGdamfe,2020-0188,2020-06-04,18:48:13,19:14:32,NA,incomplete,230,race,3,1,left,A_F_12.jpg,A_M_08.jpg,C_F_05.jpg,left,765.7650000001304,true,low,false
JRGdamfe,3kqc8jmjhf51pencp85cgosduim3h1,3z2r0dq0jlr276ylm9o31vmzjj6e2z,JRGdamfe,2020-0188,2020-06-04,18:48:13,19:14:32,NA,incomplete,231,race,3,0,right,A_F_03.jpg,C_F_09.jpg,A_M_15.jpg,right,902.7199999999721,true,low,false
JRGdamfe,3kqc8jmjhf51pencp85cgosduim3h1,3z2r0dq0jlr276ylm9o31vmzjj6e2z,JRGdamfe,2020-0188,2020-06-04,18:48:13,19:14:32,NA,incomplete,232,race,3,1,left,A_M_02.jpg,A_F_11.jpg,C_M_14.jpg,left,1082.4750000000931,true,low,false
JRGdamfe,3kqc8jmjhf51pencp85cgosduim3h1,3z2r0dq0jlr276ylm9o31vmzjj6e2z,JRGdamfe,2020-0188,2020-06-04,18:48:13,19:14:32,NA,incomplete,233,race,3,1,left,C_M_10.jpg,C_F_05.jpg,A_M_15.jpg,left,826.4500000001863,true,low,false
JRGdamfe,3kqc8jmjhf51pencp85cgosduim3h1,3z2r0dq0jlr276ylm9o31vmzjj6e2z,JRGdamfe,2020-0188,2020-06-04,18:48:13,19:14:32,NA,incomplete,234,race,3,0,left,A_M_05.jpg,A_F_12.jpg,C_M_02.jpg,left,818.8799999996554,true,low,false
JRGdamfe,3kqc8jmjhf51pencp85cgosduim3h1,3z2r0dq0jlr276ylm9o31vmzjj6e2z,JRGdamfe,2020-0188,2020-06-04,18:48:13,19:14:32,NA,incomplete,235,race,3,1,left,C_M_05.jpg,C_F_06.jpg,A_M_10.jpg,left,842.3600000001024,true,low,false
JRGdamfe,3kqc8jmjhf51pencp85cgosduim3h1,3z2r0dq0jlr276ylm9o31vmzjj6e2z,JRGdamfe,2020-0188,2020-06-04,18:48:13,19:14:32,NA,incomplete,236,race,3,0,right,C_F_10.jpg,A_F_06.jpg,C_M_03.jpg,left,908.440000000177,false,low,false
JRGdamfe,3kqc8jmjhf51pencp85cgosduim3h1,3z2r0dq0jlr276ylm9o31vmzjj6e2z,JRGdamfe,2020-0188,2020-06-04,18:48:13,19:14:32,NA,incomplete,237,race,3,1,left,C_F_13.jpg,C_M_06.jpg,A_F_16.jpg,right,594.9500000001863,false,low,false
JRGdamfe,3kqc8jmjhf51pencp85cgosduim3h1,3z2r0dq0jlr276ylm9o31vmzjj6e2z,JRGdamfe,2020-0188,2020-06-04,18:48:13,19:14:32,NA,incomplete,238,race,3,0,right,A_F_11.jpg,C_F_13.jpg,A_M_14.jpg,left,866.8300000003073,false,low,false
JRGdamfe,3kqc8jmjhf51pencp85cgosduim3h1,3z2r0dq0jlr276ylm9o31vmzjj6e2z,JRGdamfe,2020-0188,2020-06-04,18:48:13,19:14:32,NA,incomplete,239,race,3,1,left,C_F_13.jpg,C_M_10.jpg,A_F_11.jpg,right,784.0799999998417,false,low,false
JRGdamfe,3kqc8jmjhf51pencp85cgosduim3h1,3z2r0dq0jlr276ylm9o31vmzjj6e2z,JRGdamfe,2020-0188,2020-06-04,18:48:13,19:14:32,NA,NA,instruction example,color,NA,NA,NA,Green_Circle_Stripes_2.jpg,Green_Plus_Chess_4.jpg,Red_Star_Stripes_3.jpg,NA,NA,NA,NA,undefined
JRGdamfe,3kqc8jmjhf51pencp85cgosduim3h1,3z2r0dq0jlr276ylm9o31vmzjj6e2z,JRGdamfe,2020-0188,2020-06-04,18:48:13,19:14:32,NA,NA,instruction example,color,NA,NA,NA,Green_Plus_Dots_2.jpg,Blue_Triangle_Dots_1.jpg,Green_Star_Chess_3.jpg,NA,NA,NA,NA,undefined
JRGdamfe,3kqc8jmjhf51pencp85cgosduim3h1,3z2r0dq0jlr276ylm9o31vmzjj6e2z,JRGdamfe,2020-0188,2020-06-04,18:48:13,19:14:32,NA,NA,instruction example,color,NA,NA,NA,C_F_07.jpg,A_F_02.jpg,C_M_13.jpg,NA,NA,NA,NA,undefined
JRGdamfe,3kqc8jmjhf51pencp85cgosduim3h1,3z2r0dq0jlr276ylm9o31vmzjj6e2z,JRGdamfe,2020-0188,2020-06-04,18:48:13,19:14:32,NA,NA,instruction example,color,NA,NA,NA,C_F_16.jpg,C_M_05.jpg,A_F_13.jpg,NA,NA,NA,NA,undefined
