workerId,hitId,assignmentId,subject,studyid,exp_date,exp_start,exp_end,time_start,time_end,trial,type,sequence,reward_validity,answer,image_top,image_left,image_right,response,response_time,response_acc,volatility,age,race,gender,ethnicity,color,vision,neuro,practice
5efkeU79,3kqc8jmjhf51pencp85cgosduim3h1,3z2r0dq0jlr276ylm9o31vmzjiwe2n,5efkeU79,2020-0188,2020-06-04,19:03:44,19:32:34,NA,incomplete,0,filling,0,0,left,Green_Star_Chess_1.jpg,Purple_Circle_Chess_4.jpg,Red_Triangle_Dots_1.jpg,none,0,false,NA,NA,NA,NA,NA,NA,NA,NA,true
5efkeU79,3kqc8jmjhf51pencp85cgosduim3h1,3z2r0dq0jlr276ylm9o31vmzjiwe2n,5efkeU79,2020-0188,2020-06-04,19:03:44,19:32:34,NA,incomplete,1,filling,0,0,right,Blue_Circle_Stripes_4.jpg,Green_Triangle_Grid_4.jpg,Purple_Star_Stripes_2.jpg,right,975.989999998943,true,NA,NA,NA,NA,NA,NA,NA,NA,true
5efkeU79,3kqc8jmjhf51pencp85cgosduim3h1,3z2r0dq0jlr276ylm9o31vmzjiwe2n,5efkeU79,2020-0188,2020-06-04,19:03:44,19:32:34,NA,incomplete,2,filling,0,1,left,Green_Circle_Stripes_3.jpg,Blue_Triangle_Stripes_2.jpg,Purple_Plus_Dots_3.jpg,left,1371.6050000003306,true,NA,NA,NA,NA,NA,NA,NA,NA,true
5efkeU79,3kqc8jmjhf51pencp85cgosduim3h1,3z2r0dq0jlr276ylm9o31vmzjiwe2n,5efkeU79,2020-0188,2020-06-04,19:03:44,19:32:34,NA,incomplete,3,filling,0,1,right,Red_Triangle_Stripes_2.jpg,Green_Star_Chess_2.jpg,Blue_Plus_Stripes_4.jpg,right,1115.520000002929,true,NA,NA,NA,NA,NA,NA,NA,NA,true
5efkeU79,3kqc8jmjhf51pencp85cgosduim3h1,3z2r0dq0jlr276ylm9o31vmzjiwe2n,5efkeU79,2020-0188,2020-06-04,19:03:44,19:32:34,NA,incomplete,4,filling,0,0,right,Green_Triangle_Stripes_1.jpg,Red_Plus_Chess_1.jpg,Purple_Star_Stripes_2.jpg,right,1074.290000000503,true,NA,NA,NA,NA,NA,NA,NA,NA,true
5efkeU79,3kqc8jmjhf51pencp85cgosduim3h1,3z2r0dq0jlr276ylm9o31vmzjiwe2n,5efkeU79,2020-0188,2020-06-04,19:03:44,19:32:34,NA,incomplete,5,filling,0,1,right,Red_Star_Dots_2.jpg,Purple_Triangle_Stripes_2.jpg,Green_Plus_Dots_1.jpg,right,1249.6050000007963,true,NA,NA,NA,NA,NA,NA,NA,NA,true
5efkeU79,3kqc8jmjhf51pencp85cgosduim3h1,3z2r0dq0jlr276ylm9o31vmzjiwe2n,5efkeU79,2020-0188,2020-06-04,19:03:44,19:32:34,NA,incomplete,6,filling,0,1,right,Blue_Triangle_Chess_4.jpg,Purple_Plus_Dots_4.jpg,Green_Circle_Chess_1.jpg,right,1189.2500000031432,true,NA,NA,NA,NA,NA,NA,NA,NA,true
5efkeU79,3kqc8jmjhf51pencp85cgosduim3h1,3z2r0dq0jlr276ylm9o31vmzjiwe2n,5efkeU79,2020-0188,2020-06-04,19:03:44,19:32:34,NA,incomplete,7,filling,0,1,right,Red_Triangle_Grid_3.jpg,Blue_Plus_Stripes_3.jpg,Purple_Star_Grid_2.jpg,right,1230.3949999986216,true,NA,NA,NA,NA,NA,NA,NA,NA,true
5efkeU79,3kqc8jmjhf51pencp85cgosduim3h1,3z2r0dq0jlr276ylm9o31vmzjiwe2n,5efkeU79,2020-0188,2020-06-04,19:03:44,19:32:34,NA,incomplete,8,filling,0,1,left,Purple_Circle_Grid_3.jpg,Green_Plus_Grid_4.jpg,Blue_Star_Dots_3.jpg,left,1125.4999999982538,true,NA,NA,NA,NA,NA,NA,NA,NA,true
5efkeU79,3kqc8jmjhf51pencp85cgosduim3h1,3z2r0dq0jlr276ylm9o31vmzjiwe2n,5efkeU79,2020-0188,2020-06-04,19:03:44,19:32:34,NA,incomplete,9,filling,0,1,right,Blue_Star_Stripes_1.jpg,Red_Triangle_Grid_1.jpg,Purple_Plus_Stripes_2.jpg,right,1256.8949999986216,true,NA,NA,NA,NA,NA,NA,NA,NA,true
5efkeU79,3kqc8jmjhf51pencp85cgosduim3h1,3z2r0dq0jlr276ylm9o31vmzjiwe2n,5efkeU79,2020-0188,2020-06-04,19:03:44,19:32:34,NA,incomplete,10,filling,0,1,right,Blue_Plus_Dots_4.jpg,Red_Circle_Grid_4.jpg,Green_Triangle_Dots_2.jpg,right,1165.575000002631,true,NA,NA,NA,NA,NA,NA,NA,NA,true
5efkeU79,3kqc8jmjhf51pencp85cgosduim3h1,3z2r0dq0jlr276ylm9o31vmzjiwe2n,5efkeU79,2020-0188,2020-06-04,19:03:44,19:32:34,NA,incomplete,11,filling,0,1,right,Red_Circle_Chess_3.jpg,Green_Star_Dots_3.jpg,Blue_Triangle_Chess_4.jpg,right,1060.6150000022026,true,NA,NA,NA,NA,NA,NA,NA,NA,true
5efkeU79,3kqc8jmjhf51pencp85cgosduim3h1,3z2r0dq0jlr276ylm9o31vmzjiwe2n,5efkeU79,2020-0188,2020-06-04,19:03:44,19:32:34,NA,incomplete,12,filling,0,1,right,Blue_Triangle_Dots_3.jpg,Purple_Circle_Chess_3.jpg,Red_Star_Dots_1.jpg,right,1048.3749999984866,true,NA,NA,NA,NA,NA,NA,NA,NA,true
5efkeU79,3kqc8jmjhf51pencp85cgosduim3h1,3z2r0dq0jlr276ylm9o31vmzjiwe2n,5efkeU79,2020-0188,2020-06-04,19:03:44,19:32:34,NA,incomplete,13,filling,0,0,right,Blue_Plus_Stripes_4.jpg,Red_Triangle_Grid_4.jpg,Green_Circle_Stripes_1.jpg,right,1329.894999998971,true,NA,NA,NA,NA,NA,NA,NA,NA,true
5efkeU79,3kqc8jmjhf51pencp85cgosduim3h1,3z2r0dq0jlr276ylm9o31vmzjiwe2n,5efkeU79,2020-0188,2020-06-04,19:03:44,19:32:34,NA,incomplete,14,filling,0,1,left,Red_Plus_Stripes_3.jpg,Green_Circle_Stripes_2.jpg,Blue_Triangle_Dots_3.jpg,left,1095.919999999809,true,NA,NA,NA,NA,NA,NA,NA,NA,true
5efkeU79,3kqc8jmjhf51pencp85cgosduim3h1,3z2r0dq0jlr276ylm9o31vmzjiwe2n,5efkeU79,2020-0188,2020-06-04,19:03:44,19:32:34,NA,incomplete,15,filling,0,1,right,Blue_Circle_Dots_1.jpg,Red_Triangle_Stripes_1.jpg,Green_Star_Dots_4.jpg,right,1034.0700000015786,true,NA,NA,NA,NA,NA,NA,NA,NA,true
5efkeU79,3kqc8jmjhf51pencp85cgosduim3h1,3z2r0dq0jlr276ylm9o31vmzjiwe2n,5efkeU79,2020-0188,2020-06-04,19:03:44,19:32:34,NA,incomplete,16,filling,0,1,right,Purple_Triangle_Grid_3.jpg,Blue_Plus_Chess_3.jpg,Red_Star_Grid_1.jpg,right,1111.2700000011828,true,NA,NA,NA,NA,NA,NA,NA,NA,true
5efkeU79,3kqc8jmjhf51pencp85cgosduim3h1,3z2r0dq0jlr276ylm9o31vmzjiwe2n,5efkeU79,2020-0188,2020-06-04,19:03:44,19:32:34,NA,incomplete,17,filling,0,1,left,Red_Circle_Dots_1.jpg,Purple_Triangle_Dots_3.jpg,Blue_Star_Grid_1.jpg,left,953.9949999998789,true,NA,NA,NA,NA,NA,NA,NA,NA,true
5efkeU79,3kqc8jmjhf51pencp85cgosduim3h1,3z2r0dq0jlr276ylm9o31vmzjiwe2n,5efkeU79,2020-0188,2020-06-04,19:03:44,19:32:34,NA,incomplete,18,filling,0,1,right,Blue_Plus_Dots_3.jpg,Red_Circle_Chess_3.jpg,Green_Triangle_Dots_4.jpg,right,1068.3600000011502,true,NA,NA,NA,NA,NA,NA,NA,NA,true
5efkeU79,3kqc8jmjhf51pencp85cgosduim3h1,3z2r0dq0jlr276ylm9o31vmzjiwe2n,5efkeU79,2020-0188,2020-06-04,19:03:44,19:32:34,NA,incomplete,19,filling,0,1,left,Blue_Star_Chess_1.jpg,Green_Circle_Chess_4.jpg,Purple_Plus_Stripes_1.jpg,left,1001.2650000025751,true,NA,NA,NA,NA,NA,NA,NA,NA,true
5efkeU79,3kqc8jmjhf51pencp85cgosduim3h1,3z2r0dq0jlr276ylm9o31vmzjiwe2n,5efkeU79,2020-0188,2020-06-04,19:03:44,19:32:34,NA,incomplete,20,number,1,1,right,Blue_Plus_Chess_3.jpg,Purple_Star_Chess_2.jpg,Green_Triangle_Grid_3.jpg,right,1263.4900000011548,true,NA,NA,NA,NA,NA,NA,NA,NA,true
5efkeU79,3kqc8jmjhf51pencp85cgosduim3h1,3z2r0dq0jlr276ylm9o31vmzjiwe2n,5efkeU79,2020-0188,2020-06-04,19:03:44,19:32:34,NA,incomplete,21,number,1,1,left,Green_Star_Chess_3.jpg,Blue_Circle_Grid_3.jpg,Red_Triangle_Chess_1.jpg,left,1024.249999998603,true,NA,NA,NA,NA,NA,NA,NA,NA,true
5efkeU79,3kqc8jmjhf51pencp85cgosduim3h1,3z2r0dq0jlr276ylm9o31vmzjiwe2n,5efkeU79,2020-0188,2020-06-04,19:03:44,19:32:34,NA,incomplete,22,number,1,1,left,Red_Star_Stripes_3.jpg,Green_Circle_Grid_3.jpg,Blue_Plus_Stripes_1.jpg,left,815.7700000010664,true,NA,NA,NA,NA,NA,NA,NA,NA,true
5efkeU79,3kqc8jmjhf51pencp85cgosduim3h1,3z2r0dq0jlr276ylm9o31vmzjiwe2n,5efkeU79,2020-0188,2020-06-04,19:03:44,19:32:34,NA,incomplete,23,number,1,1,left,Red_Plus_Dots_3.jpg,Green_Triangle_Grid_3.jpg,Purple_Circle_Dots_1.jpg,left,721.815000000759,true,NA,NA,NA,NA,NA,NA,NA,NA,true
5efkeU79,3kqc8jmjhf51pencp85cgosduim3h1,3z2r0dq0jlr276ylm9o31vmzjiwe2n,5efkeU79,2020-0188,2020-06-04,19:03:44,19:32:34,NA,incomplete,24,number,1,1,left,Purple_Triangle_Grid_4.jpg,Red_Plus_Stripes_4.jpg,Blue_Star_Grid_2.jpg,left,895.6600000018952,true,NA,NA,NA,NA,NA,NA,NA,NA,true
5efkeU79,3kqc8jmjhf51pencp85cgosduim3h1,3z2r0dq0jlr276ylm9o31vmzjiwe2n,5efkeU79,2020-0188,2020-06-04,19:03:44,19:32:34,NA,incomplete,25,number,1,1,left,Purple_Star_Stripes_3.jpg,Blue_Plus_Chess_3.jpg,Green_Circle_Stripes_4.jpg,left,916.7899999993388,true,NA,NA,NA,NA,NA,NA,NA,NA,true
5efkeU79,3kqc8jmjhf51pencp85cgosduim3h1,3z2r0dq0jlr276ylm9o31vmzjiwe2n,5efkeU79,2020-0188,2020-06-04,19:03:44,19:32:34,NA,incomplete,26,number,1,1,right,Blue_Plus_Dots_4.jpg,Purple_Triangle_Dots_1.jpg,Red_Circle_Chess_4.jpg,right,732.09499999939,true,NA,NA,NA,NA,NA,NA,NA,NA,true
5efkeU79,3kqc8jmjhf51pencp85cgosduim3h1,3z2r0dq0jlr276ylm9o31vmzjiwe2n,5efkeU79,2020-0188,2020-06-04,19:03:44,19:32:34,NA,incomplete,27,number,1,1,right,Red_Plus_Dots_1.jpg,Green_Circle_Dots_2.jpg,Purple_Triangle_Stripes_1.jpg,right,790.8349999998463,true,NA,NA,NA,NA,NA,NA,NA,NA,true
5efkeU79,3kqc8jmjhf51pencp85cgosduim3h1,3z2r0dq0jlr276ylm9o31vmzjiwe2n,5efkeU79,2020-0188,2020-06-04,19:03:44,19:32:34,NA,incomplete,28,number,1,1,right,Red_Triangle_Grid_3.jpg,Purple_Plus_Grid_4.jpg,Blue_Star_Stripes_3.jpg,right,854.1449999975739,true,NA,NA,NA,NA,NA,NA,NA,NA,true
5efkeU79,3kqc8jmjhf51pencp85cgosduim3h1,3z2r0dq0jlr276ylm9o31vmzjiwe2n,5efkeU79,2020-0188,2020-06-04,19:03:44,19:32:34,NA,incomplete,29,number,1,1,right,Green_Star_Stripes_2.jpg,Purple_Circle_Stripes_3.jpg,Red_Plus_Dots_2.jpg,right,952.7599999964004,true,NA,NA,NA,NA,NA,NA,NA,NA,true
5efkeU79,3kqc8jmjhf51pencp85cgosduim3h1,3z2r0dq0jlr276ylm9o31vmzjiwe2n,5efkeU79,2020-0188,2020-06-04,19:03:44,19:32:34,NA,incomplete,30,number,1,1,left,Purple_Star_Grid_2.jpg,Blue_Circle_Dots_2.jpg,Green_Triangle_Grid_1.jpg,left,717.6199999994133,true,NA,NA,NA,NA,NA,NA,NA,NA,true
5efkeU79,3kqc8jmjhf51pencp85cgosduim3h1,3z2r0dq0jlr276ylm9o31vmzjiwe2n,5efkeU79,2020-0188,2020-06-04,19:03:44,19:32:34,NA,incomplete,31,number,1,1,left,Green_Triangle_Grid_2.jpg,Purple_Star_Dots_2.jpg,Blue_Circle_Grid_3.jpg,left,698.1450000021141,true,NA,NA,NA,NA,NA,NA,NA,NA,true
5efkeU79,3kqc8jmjhf51pencp85cgosduim3h1,3z2r0dq0jlr276ylm9o31vmzjiwe2n,5efkeU79,2020-0188,2020-06-04,19:03:44,19:32:34,NA,incomplete,32,number,1,0,right,Blue_Triangle_Chess_1.jpg,Red_Star_Chess_4.jpg,Green_Circle_Stripes_1.jpg,right,682.0549999974901,true,NA,NA,NA,NA,NA,NA,NA,NA,true
5efkeU79,3kqc8jmjhf51pencp85cgosduim3h1,3z2r0dq0jlr276ylm9o31vmzjiwe2n,5efkeU79,2020-0188,2020-06-04,19:03:44,19:32:34,NA,incomplete,33,number,1,0,left,Red_Plus_Dots_4.jpg,Green_Triangle_Stripes_4.jpg,Purple_Star_Dots_2.jpg,left,796.6350000023376,true,NA,NA,NA,NA,NA,NA,NA,NA,true
5efkeU79,3kqc8jmjhf51pencp85cgosduim3h1,3z2r0dq0jlr276ylm9o31vmzjiwe2n,5efkeU79,2020-0188,2020-06-04,19:03:44,19:32:34,NA,incomplete,34,number,1,1,right,Blue_Plus_Stripes_4.jpg,Purple_Circle_Stripes_1.jpg,Red_Triangle_Grid_4.jpg,right,659.0150000010617,true,NA,NA,NA,NA,NA,NA,NA,NA,true
5efkeU79,3kqc8jmjhf51pencp85cgosduim3h1,3z2r0dq0jlr276ylm9o31vmzjiwe2n,5efkeU79,2020-0188,2020-06-04,19:03:44,19:32:34,NA,incomplete,35,number,1,0,right,Purple_Triangle_Stripes_2.jpg,Green_Star_Stripes_1.jpg,Red_Circle_Grid_2.jpg,right,794.3699999996461,true,NA,NA,NA,NA,NA,NA,NA,NA,true
5efkeU79,3kqc8jmjhf51pencp85cgosduim3h1,3z2r0dq0jlr276ylm9o31vmzjiwe2n,5efkeU79,2020-0188,2020-06-04,19:03:44,19:32:34,NA,incomplete,36,number,1,0,left,Red_Star_Dots_2.jpg,Blue_Plus_Stripes_2.jpg,Purple_Circle_Dots_4.jpg,left,737.3850000003586,true,NA,NA,NA,NA,NA,NA,NA,NA,true
5efkeU79,3kqc8jmjhf51pencp85cgosduim3h1,3z2r0dq0jlr276ylm9o31vmzjiwe2n,5efkeU79,2020-0188,2020-06-04,19:03:44,19:32:34,NA,incomplete,37,number,1,1,right,Green_Plus_Dots_3.jpg,Purple_Star_Dots_1.jpg,Red_Triangle_Chess_3.jpg,right,701.8949999983888,true,NA,NA,NA,NA,NA,NA,NA,NA,true
5efkeU79,3kqc8jmjhf51pencp85cgosduim3h1,3z2r0dq0jlr276ylm9o31vmzjiwe2n,5efkeU79,2020-0188,2020-06-04,19:03:44,19:32:34,NA,incomplete,38,number,1,1,right,Red_Circle_Stripes_2.jpg,Purple_Star_Stripes_1.jpg,Blue_Plus_Dots_2.jpg,right,850.4250000005122,true,NA,NA,NA,NA,NA,NA,NA,NA,true
5efkeU79,3kqc8jmjhf51pencp85cgosduim3h1,3z2r0dq0jlr276ylm9o31vmzjiwe2n,5efkeU79,2020-0188,2020-06-04,19:03:44,19:32:34,NA,incomplete,39,number,1,1,left,Red_Plus_Grid_1.jpg,Blue_Triangle_Stripes_1.jpg,Green_Star_Grid_4.jpg,left,662.1950000007637,true,NA,NA,NA,NA,NA,NA,NA,NA,true
5efkeU79,3kqc8jmjhf51pencp85cgosduim3h1,3z2r0dq0jlr276ylm9o31vmzjiwe2n,5efkeU79,2020-0188,2020-06-04,19:03:44,19:32:34,NA,incomplete,0,filling,0,1,right,Blue_Triangle_Chess_2.jpg,Green_Circle_Dots_2.jpg,Red_Star_Chess_1.jpg,left,1242.5550000008661,false,high,NA,NA,NA,NA,NA,NA,NA,false
5efkeU79,3kqc8jmjhf51pencp85cgosduim3h1,3z2r0dq0jlr276ylm9o31vmzjiwe2n,5efkeU79,2020-0188,2020-06-04,19:03:44,19:32:34,NA,incomplete,1,filling,0,0,left,Blue_Star_Chess_2.jpg,Green_Plus_Chess_3.jpg,Purple_Triangle_Stripes_2.jpg,left,1306.8500000010245,true,high,NA,NA,NA,NA,NA,NA,NA,false
5efkeU79,3kqc8jmjhf51pencp85cgosduim3h1,3z2r0dq0jlr276ylm9o31vmzjiwe2n,5efkeU79,2020-0188,2020-06-04,19:03:44,19:32:34,NA,incomplete,2,filling,0,1,right,Blue_Triangle_Stripes_3.jpg,Green_Circle_Dots_3.jpg,Red_Star_Stripes_4.jpg,left,807.7149999989197,false,high,NA,NA,NA,NA,NA,NA,NA,false
5efkeU79,3kqc8jmjhf51pencp85cgosduim3h1,3z2r0dq0jlr276ylm9o31vmzjiwe2n,5efkeU79,2020-0188,2020-06-04,19:03:44,19:32:34,NA,incomplete,3,filling,0,1,left,Green_Plus_Chess_2.jpg,Purple_Triangle_Chess_3.jpg,Blue_Star_Dots_2.jpg,left,1446.5950000011362,true,high,NA,NA,NA,NA,NA,NA,NA,false
5efkeU79,3kqc8jmjhf51pencp85cgosduim3h1,3z2r0dq0jlr276ylm9o31vmzjiwe2n,5efkeU79,2020-0188,2020-06-04,19:03:44,19:32:34,NA,incomplete,4,filling,0,1,left,Purple_Circle_Dots_2.jpg,Green_Star_Dots_4.jpg,Red_Plus_Stripes_2.jpg,right,889.4299999994691,false,high,NA,NA,NA,NA,NA,NA,NA,false
5efkeU79,3kqc8jmjhf51pencp85cgosduim3h1,3z2r0dq0jlr276ylm9o31vmzjiwe2n,5efkeU79,2020-0188,2020-06-04,19:03:44,19:32:34,NA,incomplete,5,filling,0,1,left,Purple_Circle_Chess_1.jpg,Red_Star_Chess_2.jpg,Green_Triangle_Stripes_1.jpg,left,803.4499999992549,true,high,NA,NA,NA,NA,NA,NA,NA,false
5efkeU79,3kqc8jmjhf51pencp85cgosduim3h1,3z2r0dq0jlr276ylm9o31vmzjiwe2n,5efkeU79,2020-0188,2020-06-04,19:03:44,19:32:34,NA,incomplete,6,filling,0,1,left,Blue_Plus_Chess_2.jpg,Red_Star_Chess_1.jpg,Green_Triangle_Dots_2.jpg,left,842.1699999999255,true,high,NA,NA,NA,NA,NA,NA,NA,false
5efkeU79,3kqc8jmjhf51pencp85cgosduim3h1,3z2r0dq0jlr276ylm9o31vmzjiwe2n,5efkeU79,2020-0188,2020-06-04,19:03:44,19:32:34,NA,incomplete,7,filling,0,1,left,Purple_Circle_Chess_2.jpg,Blue_Triangle_Chess_1.jpg,Red_Plus_Stripes_2.jpg,left,709.7899999970105,true,high,NA,NA,NA,NA,NA,NA,NA,false
5efkeU79,3kqc8jmjhf51pencp85cgosduim3h1,3z2r0dq0jlr276ylm9o31vmzjiwe2n,5efkeU79,2020-0188,2020-06-04,19:03:44,19:32:34,NA,incomplete,8,filling,0,0,right,Purple_Circle_Stripes_3.jpg,Red_Triangle_Chess_3.jpg,Blue_Plus_Stripes_4.jpg,right,942.8900000022259,true,high,NA,NA,NA,NA,NA,NA,NA,false
5efkeU79,3kqc8jmjhf51pencp85cgosduim3h1,3z2r0dq0jlr276ylm9o31vmzjiwe2n,5efkeU79,2020-0188,2020-06-04,19:03:44,19:32:34,NA,incomplete,9,filling,0,1,left,Red_Triangle_Grid_3.jpg,Green_Circle_Grid_4.jpg,Purple_Star_Stripes_3.jpg,right,892.4750000005588,false,high,NA,NA,NA,NA,NA,NA,NA,false
5efkeU79,3kqc8jmjhf51pencp85cgosduim3h1,3z2r0dq0jlr276ylm9o31vmzjiwe2n,5efkeU79,2020-0188,2020-06-04,19:03:44,19:32:34,NA,incomplete,10,number,1,1,right,Blue_Triangle_Stripes_4.jpg,Purple_Plus_Stripes_2.jpg,Red_Circle_Grid_4.jpg,left,1404.1649999998044,false,high,NA,NA,NA,NA,NA,NA,NA,false
5efkeU79,3kqc8jmjhf51pencp85cgosduim3h1,3z2r0dq0jlr276ylm9o31vmzjiwe2n,5efkeU79,2020-0188,2020-06-04,19:03:44,19:32:34,NA,incomplete,11,number,1,0,left,Green_Star_Grid_2.jpg,Purple_Circle_Dots_2.jpg,Red_Triangle_Grid_4.jpg,right,1010.7349999998696,false,high,NA,NA,NA,NA,NA,NA,NA,false
5efkeU79,3kqc8jmjhf51pencp85cgosduim3h1,3z2r0dq0jlr276ylm9o31vmzjiwe2n,5efkeU79,2020-0188,2020-06-04,19:03:44,19:32:34,NA,incomplete,12,number,1,1,left,Red_Triangle_Grid_4.jpg,Blue_Circle_Stripes_4.jpg,Purple_Plus_Grid_3.jpg,right,1104.5099999974482,false,high,NA,NA,NA,NA,NA,NA,NA,false
5efkeU79,3kqc8jmjhf51pencp85cgosduim3h1,3z2r0dq0jlr276ylm9o31vmzjiwe2n,5efkeU79,2020-0188,2020-06-04,19:03:44,19:32:34,NA,incomplete,13,number,1,1,left,Blue_Triangle_Stripes_2.jpg,Green_Circle_Grid_2.jpg,Purple_Plus_Stripes_4.jpg,right,1050.8449999981094,false,high,NA,NA,NA,NA,NA,NA,NA,false
5efkeU79,3kqc8jmjhf51pencp85cgosduim3h1,3z2r0dq0jlr276ylm9o31vmzjiwe2n,5efkeU79,2020-0188,2020-06-04,19:03:44,19:32:34,NA,incomplete,14,number,1,1,right,Purple_Star_Chess_1.jpg,Green_Plus_Chess_2.jpg,Blue_Triangle_Dots_1.jpg,right,836.7050000014715,true,high,NA,NA,NA,NA,NA,NA,NA,false
5efkeU79,3kqc8jmjhf51pencp85cgosduim3h1,3z2r0dq0jlr276ylm9o31vmzjiwe2n,5efkeU79,2020-0188,2020-06-04,19:03:44,19:32:34,NA,incomplete,15,number,1,0,right,Purple_Star_Stripes_3.jpg,Red_Triangle_Stripes_1.jpg,Blue_Circle_Dots_3.jpg,right,954.2650000003632,true,high,NA,NA,NA,NA,NA,NA,NA,false
5efkeU79,3kqc8jmjhf51pencp85cgosduim3h1,3z2r0dq0jlr276ylm9o31vmzjiwe2n,5efkeU79,2020-0188,2020-06-04,19:03:44,19:32:34,NA,incomplete,16,number,1,1,left,Blue_Star_Stripes_3.jpg,Purple_Plus_Dots_3.jpg,Green_Circle_Stripes_2.jpg,left,689.6749999977183,true,high,NA,NA,NA,NA,NA,NA,NA,false
5efkeU79,3kqc8jmjhf51pencp85cgosduim3h1,3z2r0dq0jlr276ylm9o31vmzjiwe2n,5efkeU79,2020-0188,2020-06-04,19:03:44,19:32:34,NA,incomplete,17,number,1,1,right,Purple_Plus_Grid_1.jpg,Red_Triangle_Grid_3.jpg,Blue_Circle_Chess_1.jpg,right,765.4849999998696,true,high,NA,NA,NA,NA,NA,NA,NA,false
5efkeU79,3kqc8jmjhf51pencp85cgosduim3h1,3z2r0dq0jlr276ylm9o31vmzjiwe2n,5efkeU79,2020-0188,2020-06-04,19:03:44,19:32:34,NA,incomplete,18,number,1,1,left,Purple_Circle_Stripes_2.jpg,Green_Plus_Dots_2.jpg,Red_Triangle_Stripes_1.jpg,left,621.5350000020117,true,high,NA,NA,NA,NA,NA,NA,NA,false
5efkeU79,3kqc8jmjhf51pencp85cgosduim3h1,3z2r0dq0jlr276ylm9o31vmzjiwe2n,5efkeU79,2020-0188,2020-06-04,19:03:44,19:32:34,NA,incomplete,19,number,1,1,right,Red_Circle_Chess_2.jpg,Purple_Triangle_Chess_4.jpg,Green_Plus_Grid_2.jpg,right,756.0349999985192,true,high,NA,NA,NA,NA,NA,NA,NA,false
5efkeU79,3kqc8jmjhf51pencp85cgosduim3h1,3z2r0dq0jlr276ylm9o31vmzjiwe2n,5efkeU79,2020-0188,2020-06-04,19:03:44,19:32:34,NA,incomplete,20,filling,0,1,right,Purple_Circle_Stripes_3.jpg,Red_Star_Dots_3.jpg,Blue_Plus_Stripes_1.jpg,left,961.0800000010058,false,high,NA,NA,NA,NA,NA,NA,NA,false
5efkeU79,3kqc8jmjhf51pencp85cgosduim3h1,3z2r0dq0jlr276ylm9o31vmzjiwe2n,5efkeU79,2020-0188,2020-06-04,19:03:44,19:32:34,NA,incomplete,21,filling,0,1,left,Blue_Triangle_Stripes_1.jpg,Red_Circle_Stripes_4.jpg,Green_Star_Grid_1.jpg,right,1280.0900000000838,false,high,NA,NA,NA,NA,NA,NA,NA,false
5efkeU79,3kqc8jmjhf51pencp85cgosduim3h1,3z2r0dq0jlr276ylm9o31vmzjiwe2n,5efkeU79,2020-0188,2020-06-04,19:03:44,19:32:34,NA,incomplete,22,filling,0,1,right,Red_Star_Grid_4.jpg,Green_Circle_Stripes_4.jpg,Blue_Triangle_Grid_3.jpg,right,887.5949999999721,true,high,NA,NA,NA,NA,NA,NA,NA,false
5efkeU79,3kqc8jmjhf51pencp85cgosduim3h1,3z2r0dq0jlr276ylm9o31vmzjiwe2n,5efkeU79,2020-0188,2020-06-04,19:03:44,19:32:34,NA,incomplete,23,filling,0,1,left,Blue_Circle_Dots_3.jpg,Purple_Triangle_Dots_4.jpg,Red_Plus_Chess_3.jpg,left,1116.1450000000186,true,high,NA,NA,NA,NA,NA,NA,NA,false
5efkeU79,3kqc8jmjhf51pencp85cgosduim3h1,3z2r0dq0jlr276ylm9o31vmzjiwe2n,5efkeU79,2020-0188,2020-06-04,19:03:44,19:32:34,NA,incomplete,24,filling,0,0,right,Blue_Star_Stripes_2.jpg,Green_Plus_Dots_2.jpg,Red_Triangle_Stripes_4.jpg,right,711.794999999227,true,high,NA,NA,NA,NA,NA,NA,NA,false
5efkeU79,3kqc8jmjhf51pencp85cgosduim3h1,3z2r0dq0jlr276ylm9o31vmzjiwe2n,5efkeU79,2020-0188,2020-06-04,19:03:44,19:32:34,NA,incomplete,25,filling,0,1,left,Green_Circle_Chess_3.jpg,Blue_Triangle_Chess_2.jpg,Red_Plus_Dots_3.jpg,left,978.6249999997672,true,high,NA,NA,NA,NA,NA,NA,NA,false
5efkeU79,3kqc8jmjhf51pencp85cgosduim3h1,3z2r0dq0jlr276ylm9o31vmzjiwe2n,5efkeU79,2020-0188,2020-06-04,19:03:44,19:32:34,NA,incomplete,26,filling,0,1,left,Purple_Plus_Chess_2.jpg,Red_Star_Chess_1.jpg,Green_Circle_Dots_2.jpg,left,1085.3299999982119,true,high,NA,NA,NA,NA,NA,NA,NA,false
5efkeU79,3kqc8jmjhf51pencp85cgosduim3h1,3z2r0dq0jlr276ylm9o31vmzjiwe2n,5efkeU79,2020-0188,2020-06-04,19:03:44,19:32:34,NA,incomplete,27,filling,0,1,left,Red_Star_Grid_2.jpg,Purple_Triangle_Grid_4.jpg,Green_Plus_Stripes_2.jpg,left,1129.2549999998882,true,high,NA,NA,NA,NA,NA,NA,NA,false
5efkeU79,3kqc8jmjhf51pencp85cgosduim3h1,3z2r0dq0jlr276ylm9o31vmzjiwe2n,5efkeU79,2020-0188,2020-06-04,19:03:44,19:32:34,NA,incomplete,28,filling,0,0,right,Red_Circle_Stripes_4.jpg,Green_Plus_Chess_4.jpg,Purple_Triangle_Stripes_1.jpg,right,834.7649999996647,true,high,NA,NA,NA,NA,NA,NA,NA,false
5efkeU79,3kqc8jmjhf51pencp85cgosduim3h1,3z2r0dq0jlr276ylm9o31vmzjiwe2n,5efkeU79,2020-0188,2020-06-04,19:03:44,19:32:34,NA,incomplete,29,filling,0,1,left,Blue_Star_Stripes_2.jpg,Purple_Plus_Stripes_1.jpg,Green_Circle_Chess_2.jpg,left,730.7599999983795,true,high,NA,NA,NA,NA,NA,NA,NA,false
5efkeU79,3kqc8jmjhf51pencp85cgosduim3h1,3z2r0dq0jlr276ylm9o31vmzjiwe2n,5efkeU79,2020-0188,2020-06-04,19:03:44,19:32:34,NA,incomplete,30,number,1,0,right,Purple_Plus_Chess_3.jpg,Green_Star_Chess_4.jpg,Blue_Triangle_Grid_3.jpg,left,1269.7499999995343,false,high,NA,NA,NA,NA,NA,NA,NA,false
5efkeU79,3kqc8jmjhf51pencp85cgosduim3h1,3z2r0dq0jlr276ylm9o31vmzjiwe2n,5efkeU79,2020-0188,2020-06-04,19:03:44,19:32:34,NA,incomplete,31,number,1,1,left,Red_Plus_Chess_4.jpg,Blue_Triangle_Dots_4.jpg,Purple_Circle_Chess_3.jpg,right,1023.0100000007078,false,high,NA,NA,NA,NA,NA,NA,NA,false
5efkeU79,3kqc8jmjhf51pencp85cgosduim3h1,3z2r0dq0jlr276ylm9o31vmzjiwe2n,5efkeU79,2020-0188,2020-06-04,19:03:44,19:32:34,NA,incomplete,32,number,1,1,right,Blue_Triangle_Stripes_4.jpg,Purple_Plus_Stripes_3.jpg,Green_Circle_Grid_4.jpg,left,778.6400000003632,false,high,NA,NA,NA,NA,NA,NA,NA,false
5efkeU79,3kqc8jmjhf51pencp85cgosduim3h1,3z2r0dq0jlr276ylm9o31vmzjiwe2n,5efkeU79,2020-0188,2020-06-04,19:03:44,19:32:34,NA,incomplete,33,number,1,1,right,Red_Star_Grid_4.jpg,Blue_Circle_Grid_3.jpg,Purple_Triangle_Stripes_4.jpg,right,837.5699999995995,true,high,NA,NA,NA,NA,NA,NA,NA,false
5efkeU79,3kqc8jmjhf51pencp85cgosduim3h1,3z2r0dq0jlr276ylm9o31vmzjiwe2n,5efkeU79,2020-0188,2020-06-04,19:03:44,19:32:34,NA,incomplete,34,number,1,0,left,Purple_Star_Dots_4.jpg,Green_Plus_Chess_4.jpg,Blue_Circle_Dots_3.jpg,left,890.480000001844,true,high,NA,NA,NA,NA,NA,NA,NA,false
5efkeU79,3kqc8jmjhf51pencp85cgosduim3h1,3z2r0dq0jlr276ylm9o31vmzjiwe2n,5efkeU79,2020-0188,2020-06-04,19:03:44,19:32:34,NA,incomplete,35,number,1,1,right,Green_Triangle_Dots_2.jpg,Purple_Star_Dots_3.jpg,Blue_Circle_Chess_2.jpg,right,782.5599999995902,true,high,NA,NA,NA,NA,NA,NA,NA,false
5efkeU79,3kqc8jmjhf51pencp85cgosduim3h1,3z2r0dq0jlr276ylm9o31vmzjiwe2n,5efkeU79,2020-0188,2020-06-04,19:03:44,19:32:34,NA,incomplete,36,number,1,0,left,Blue_Triangle_Grid_4.jpg,Purple_Circle_Dots_4.jpg,Red_Plus_Grid_1.jpg,left,731.9900000002235,true,high,NA,NA,NA,NA,NA,NA,NA,false
5efkeU79,3kqc8jmjhf51pencp85cgosduim3h1,3z2r0dq0jlr276ylm9o31vmzjiwe2n,5efkeU79,2020-0188,2020-06-04,19:03:44,19:32:34,NA,incomplete,37,number,1,1,right,Green_Triangle_Stripes_2.jpg,Purple_Circle_Stripes_3.jpg,Red_Star_Dots_2.jpg,right,727.2400000002235,true,high,NA,NA,NA,NA,NA,NA,NA,false
5efkeU79,3kqc8jmjhf51pencp85cgosduim3h1,3z2r0dq0jlr276ylm9o31vmzjiwe2n,5efkeU79,2020-0188,2020-06-04,19:03:44,19:32:34,NA,incomplete,38,number,1,1,left,Red_Circle_Dots_1.jpg,Purple_Plus_Stripes_1.jpg,Blue_Triangle_Dots_3.jpg,left,638.1200000031386,true,high,NA,NA,NA,NA,NA,NA,NA,false
5efkeU79,3kqc8jmjhf51pencp85cgosduim3h1,3z2r0dq0jlr276ylm9o31vmzjiwe2n,5efkeU79,2020-0188,2020-06-04,19:03:44,19:32:34,NA,incomplete,39,number,1,1,left,Blue_Triangle_Chess_3.jpg,Green_Circle_Stripes_3.jpg,Purple_Star_Chess_2.jpg,left,856.9300000015646,true,high,NA,NA,NA,NA,NA,NA,NA,false
5efkeU79,3kqc8jmjhf51pencp85cgosduim3h1,3z2r0dq0jlr276ylm9o31vmzjiwe2n,5efkeU79,2020-0188,2020-06-04,19:03:44,19:32:34,NA,incomplete,40,filling,0,1,left,Red_Triangle_Dots_2.jpg,Blue_Circle_Dots_4.jpg,Purple_Plus_Grid_2.jpg,right,855.5249999989755,false,high,NA,NA,NA,NA,NA,NA,NA,false
5efkeU79,3kqc8jmjhf51pencp85cgosduim3h1,3z2r0dq0jlr276ylm9o31vmzjiwe2n,5efkeU79,2020-0188,2020-06-04,19:03:44,19:32:34,NA,incomplete,41,filling,0,1,left,Purple_Circle_Chess_2.jpg,Blue_Triangle_Chess_4.jpg,Green_Plus_Dots_2.jpg,right,1102.309999998426,false,high,NA,NA,NA,NA,NA,NA,NA,false
5efkeU79,3kqc8jmjhf51pencp85cgosduim3h1,3z2r0dq0jlr276ylm9o31vmzjiwe2n,5efkeU79,2020-0188,2020-06-04,19:03:44,19:32:34,NA,incomplete,42,filling,0,0,left,Green_Star_Dots_1.jpg,Red_Plus_Dots_3.jpg,Blue_Triangle_Chess_1.jpg,left,734.5750000020489,true,high,NA,NA,NA,NA,NA,NA,NA,false
5efkeU79,3kqc8jmjhf51pencp85cgosduim3h1,3z2r0dq0jlr276ylm9o31vmzjiwe2n,5efkeU79,2020-0188,2020-06-04,19:03:44,19:32:34,NA,incomplete,43,filling,0,1,left,Purple_Star_Grid_1.jpg,Blue_Triangle_Grid_3.jpg,Red_Plus_Dots_1.jpg,left,675.4199999994598,true,high,NA,NA,NA,NA,NA,NA,NA,false
5efkeU79,3kqc8jmjhf51pencp85cgosduim3h1,3z2r0dq0jlr276ylm9o31vmzjiwe2n,5efkeU79,2020-0188,2020-06-04,19:03:44,19:32:34,NA,incomplete,44,filling,0,1,right,Purple_Triangle_Dots_3.jpg,Green_Circle_Grid_3.jpg,Red_Plus_Dots_2.jpg,right,895.2800000007264,true,high,NA,NA,NA,NA,NA,NA,NA,false
5efkeU79,3kqc8jmjhf51pencp85cgosduim3h1,3z2r0dq0jlr276ylm9o31vmzjiwe2n,5efkeU79,2020-0188,2020-06-04,19:03:44,19:32:34,NA,incomplete,45,filling,0,1,left,Purple_Plus_Grid_2.jpg,Red_Star_Grid_1.jpg,Green_Triangle_Stripes_2.jpg,left,859.5149999998976,true,high,NA,NA,NA,NA,NA,NA,NA,false
5efkeU79,3kqc8jmjhf51pencp85cgosduim3h1,3z2r0dq0jlr276ylm9o31vmzjiwe2n,5efkeU79,2020-0188,2020-06-04,19:03:44,19:32:34,NA,incomplete,46,filling,0,1,left,Purple_Plus_Dots_4.jpg,Blue_Triangle_Dots_1.jpg,Green_Star_Grid_4.jpg,left,791.9949999994133,true,high,NA,NA,NA,NA,NA,NA,NA,false
5efkeU79,3kqc8jmjhf51pencp85cgosduim3h1,3z2r0dq0jlr276ylm9o31vmzjiwe2n,5efkeU79,2020-0188,2020-06-04,19:03:44,19:32:34,NA,incomplete,47,filling,0,1,right,Purple_Star_Stripes_4.jpg,Blue_Triangle_Grid_4.jpg,Green_Circle_Stripes_3.jpg,right,811.1099999987055,true,high,NA,NA,NA,NA,NA,NA,NA,false
5efkeU79,3kqc8jmjhf51pencp85cgosduim3h1,3z2r0dq0jlr276ylm9o31vmzjiwe2n,5efkeU79,2020-0188,2020-06-04,19:03:44,19:32:34,NA,incomplete,48,filling,0,1,left,Blue_Star_Chess_3.jpg,Red_Circle_Chess_4.jpg,Purple_Triangle_Grid_3.jpg,left,785.6050000009127,true,high,NA,NA,NA,NA,NA,NA,NA,false
5efkeU79,3kqc8jmjhf51pencp85cgosduim3h1,3z2r0dq0jlr276ylm9o31vmzjiwe2n,5efkeU79,2020-0188,2020-06-04,19:03:44,19:32:34,NA,incomplete,49,filling,0,1,left,Green_Star_Grid_4.jpg,Red_Triangle_Grid_2.jpg,Blue_Circle_Stripes_4.jpg,left,797.5949999999721,true,high,NA,NA,NA,NA,NA,NA,NA,false
5efkeU79,3kqc8jmjhf51pencp85cgosduim3h1,3z2r0dq0jlr276ylm9o31vmzjiwe2n,5efkeU79,2020-0188,2020-06-04,19:03:44,19:32:34,NA,incomplete,50,number,1,1,left,Red_Star_Dots_1.jpg,Blue_Plus_Grid_1.jpg,Purple_Circle_Dots_3.jpg,right,862.3449999978766,false,high,NA,NA,NA,NA,NA,NA,NA,false
5efkeU79,3kqc8jmjhf51pencp85cgosduim3h1,3z2r0dq0jlr276ylm9o31vmzjiwe2n,5efkeU79,2020-0188,2020-06-04,19:03:44,19:32:34,NA,incomplete,51,number,1,1,right,Purple_Star_Stripes_3.jpg,Green_Circle_Stripes_1.jpg,Blue_Triangle_Grid_3.jpg,left,816.4049999979325,false,high,NA,NA,NA,NA,NA,NA,NA,false
5efkeU79,3kqc8jmjhf51pencp85cgosduim3h1,3z2r0dq0jlr276ylm9o31vmzjiwe2n,5efkeU79,2020-0188,2020-06-04,19:03:44,19:32:34,NA,incomplete,52,number,1,1,right,Blue_Triangle_Chess_2.jpg,Red_Star_Chess_4.jpg,Purple_Plus_Grid_2.jpg,right,1147.2400000020862,true,high,NA,NA,NA,NA,NA,NA,NA,false
5efkeU79,3kqc8jmjhf51pencp85cgosduim3h1,3z2r0dq0jlr276ylm9o31vmzjiwe2n,5efkeU79,2020-0188,2020-06-04,19:03:44,19:32:34,NA,incomplete,53,number,1,1,left,Blue_Triangle_Chess_1.jpg,Green_Plus_Dots_1.jpg,Purple_Star_Chess_3.jpg,left,717.4599999997299,true,high,NA,NA,NA,NA,NA,NA,NA,false
5efkeU79,3kqc8jmjhf51pencp85cgosduim3h1,3z2r0dq0jlr276ylm9o31vmzjiwe2n,5efkeU79,2020-0188,2020-06-04,19:03:44,19:32:34,NA,incomplete,54,number,1,1,right,Purple_Circle_Chess_4.jpg,Green_Plus_Chess_3.jpg,Blue_Triangle_Grid_4.jpg,right,769.8349999990314,true,high,NA,NA,NA,NA,NA,NA,NA,false
5efkeU79,3kqc8jmjhf51pencp85cgosduim3h1,3z2r0dq0jlr276ylm9o31vmzjiwe2n,5efkeU79,2020-0188,2020-06-04,19:03:44,19:32:34,NA,incomplete,55,number,1,1,left,Blue_Plus_Grid_4.jpg,Purple_Star_Chess_4.jpg,Red_Circle_Grid_3.jpg,left,738.4949999977835,true,high,NA,NA,NA,NA,NA,NA,NA,false
5efkeU79,3kqc8jmjhf51pencp85cgosduim3h1,3z2r0dq0jlr276ylm9o31vmzjiwe2n,5efkeU79,2020-0188,2020-06-04,19:03:44,19:32:34,NA,incomplete,56,number,1,1,left,Purple_Circle_Grid_4.jpg,Blue_Star_Stripes_4.jpg,Green_Plus_Grid_2.jpg,left,773.2950000024866,true,high,NA,NA,NA,NA,NA,NA,NA,false
5efkeU79,3kqc8jmjhf51pencp85cgosduim3h1,3z2r0dq0jlr276ylm9o31vmzjiwe2n,5efkeU79,2020-0188,2020-06-04,19:03:44,19:32:34,NA,incomplete,57,number,1,1,right,Blue_Triangle_Grid_3.jpg,Green_Plus_Grid_2.jpg,Red_Circle_Dots_3.jpg,right,1009.7600000009406,true,high,NA,NA,NA,NA,NA,NA,NA,false
5efkeU79,3kqc8jmjhf51pencp85cgosduim3h1,3z2r0dq0jlr276ylm9o31vmzjiwe2n,5efkeU79,2020-0188,2020-06-04,19:03:44,19:32:34,NA,incomplete,58,number,1,1,right,Red_Plus_Stripes_4.jpg,Blue_Triangle_Stripes_1.jpg,Green_Circle_Grid_4.jpg,right,800.9999999995343,true,high,NA,NA,NA,NA,NA,NA,NA,false
5efkeU79,3kqc8jmjhf51pencp85cgosduim3h1,3z2r0dq0jlr276ylm9o31vmzjiwe2n,5efkeU79,2020-0188,2020-06-04,19:03:44,19:32:34,NA,incomplete,59,number,1,1,left,Purple_Circle_Dots_3.jpg,Blue_Triangle_Chess_3.jpg,Green_Star_Dots_4.jpg,left,770.2800000004936,true,high,NA,NA,NA,NA,NA,NA,NA,false
5efkeU79,3kqc8jmjhf51pencp85cgosduim3h1,3z2r0dq0jlr276ylm9o31vmzjiwe2n,5efkeU79,2020-0188,2020-06-04,19:03:44,19:32:34,NA,incomplete,60,filling,0,1,right,Green_Plus_Dots_3.jpg,Purple_Circle_Grid_3.jpg,Red_Triangle_Dots_2.jpg,left,875.4200000003912,false,high,NA,NA,NA,NA,NA,NA,NA,false
5efkeU79,3kqc8jmjhf51pencp85cgosduim3h1,3z2r0dq0jlr276ylm9o31vmzjiwe2n,5efkeU79,2020-0188,2020-06-04,19:03:44,19:32:34,NA,incomplete,61,filling,0,0,right,Purple_Triangle_Chess_4.jpg,Blue_Circle_Stripes_4.jpg,Red_Star_Chess_3.jpg,right,977.6249999995343,true,high,NA,NA,NA,NA,NA,NA,NA,false
5efkeU79,3kqc8jmjhf51pencp85cgosduim3h1,3z2r0dq0jlr276ylm9o31vmzjiwe2n,5efkeU79,2020-0188,2020-06-04,19:03:44,19:32:34,NA,incomplete,62,filling,0,1,right,Purple_Plus_Grid_4.jpg,Green_Circle_Stripes_4.jpg,Red_Star_Grid_2.jpg,right,712.1150000020862,true,high,NA,NA,NA,NA,NA,NA,NA,false
5efkeU79,3kqc8jmjhf51pencp85cgosduim3h1,3z2r0dq0jlr276ylm9o31vmzjiwe2n,5efkeU79,2020-0188,2020-06-04,19:03:44,19:32:34,NA,incomplete,63,filling,0,1,left,Blue_Triangle_Grid_4.jpg,Red_Plus_Grid_2.jpg,Green_Star_Dots_4.jpg,left,830.9950000003446,true,high,NA,NA,NA,NA,NA,NA,NA,false
5efkeU79,3kqc8jmjhf51pencp85cgosduim3h1,3z2r0dq0jlr276ylm9o31vmzjiwe2n,5efkeU79,2020-0188,2020-06-04,19:03:44,19:32:34,NA,incomplete,64,filling,0,1,right,Green_Triangle_Stripes_4.jpg,Red_Plus_Chess_4.jpg,Blue_Circle_Stripes_3.jpg,right,872.6999999999534,true,high,NA,NA,NA,NA,NA,NA,NA,false
5efkeU79,3kqc8jmjhf51pencp85cgosduim3h1,3z2r0dq0jlr276ylm9o31vmzjiwe2n,5efkeU79,2020-0188,2020-06-04,19:03:44,19:32:34,NA,incomplete,65,filling,0,1,left,Green_Triangle_Grid_3.jpg,Red_Circle_Grid_2.jpg,Purple_Star_Chess_3.jpg,left,908.2750000017695,true,high,NA,NA,NA,NA,NA,NA,NA,false
5efkeU79,3kqc8jmjhf51pencp85cgosduim3h1,3z2r0dq0jlr276ylm9o31vmzjiwe2n,5efkeU79,2020-0188,2020-06-04,19:03:44,19:32:34,NA,incomplete,66,filling,0,1,left,Blue_Circle_Stripes_4.jpg,Purple_Plus_Stripes_3.jpg,Green_Star_Chess_4.jpg,left,1246.780000001425,true,high,NA,NA,NA,NA,NA,NA,NA,false
5efkeU79,3kqc8jmjhf51pencp85cgosduim3h1,3z2r0dq0jlr276ylm9o31vmzjiwe2n,5efkeU79,2020-0188,2020-06-04,19:03:44,19:32:34,NA,incomplete,67,filling,0,1,left,Blue_Star_Dots_2.jpg,Red_Plus_Dots_3.jpg,Purple_Triangle_Grid_2.jpg,left,1011.194999998901,true,high,NA,NA,NA,NA,NA,NA,NA,false
5efkeU79,3kqc8jmjhf51pencp85cgosduim3h1,3z2r0dq0jlr276ylm9o31vmzjiwe2n,5efkeU79,2020-0188,2020-06-04,19:03:44,19:32:34,NA,incomplete,68,filling,0,1,right,Green_Triangle_Grid_4.jpg,Purple_Circle_Stripes_4.jpg,Blue_Star_Grid_3.jpg,left,831.364999998128,false,high,NA,NA,NA,NA,NA,NA,NA,false
5efkeU79,3kqc8jmjhf51pencp85cgosduim3h1,3z2r0dq0jlr276ylm9o31vmzjiwe2n,5efkeU79,2020-0188,2020-06-04,19:03:44,19:32:34,NA,incomplete,69,filling,0,0,right,Green_Triangle_Stripes_3.jpg,Red_Circle_Chess_3.jpg,Purple_Plus_Stripes_4.jpg,left,964.9049999970011,false,high,NA,NA,NA,NA,NA,NA,NA,false
5efkeU79,3kqc8jmjhf51pencp85cgosduim3h1,3z2r0dq0jlr276ylm9o31vmzjiwe2n,5efkeU79,2020-0188,2020-06-04,19:03:44,19:32:34,NA,incomplete,70,number,1,1,right,Green_Circle_Chess_3.jpg,Blue_Plus_Chess_2.jpg,Red_Triangle_Dots_3.jpg,left,997.9400000013411,false,high,NA,NA,NA,NA,NA,NA,NA,false
5efkeU79,3kqc8jmjhf51pencp85cgosduim3h1,3z2r0dq0jlr276ylm9o31vmzjiwe2n,5efkeU79,2020-0188,2020-06-04,19:03:44,19:32:34,NA,incomplete,71,number,1,1,left,Green_Star_Chess_2.jpg,Red_Plus_Grid_2.jpg,Purple_Triangle_Chess_3.jpg,left,841.9150000009686,true,high,NA,NA,NA,NA,NA,NA,NA,false
5efkeU79,3kqc8jmjhf51pencp85cgosduim3h1,3z2r0dq0jlr276ylm9o31vmzjiwe2n,5efkeU79,2020-0188,2020-06-04,19:03:44,19:32:34,NA,incomplete,72,number,1,1,right,Red_Circle_Stripes_3.jpg,Green_Plus_Stripes_2.jpg,Blue_Star_Chess_3.jpg,right,809.320000000298,true,high,NA,NA,NA,NA,NA,NA,NA,false
5efkeU79,3kqc8jmjhf51pencp85cgosduim3h1,3z2r0dq0jlr276ylm9o31vmzjiwe2n,5efkeU79,2020-0188,2020-06-04,19:03:44,19:32:34,NA,incomplete,73,number,1,0,right,Purple_Plus_Stripes_4.jpg,Blue_Star_Stripes_2.jpg,Red_Triangle_Chess_4.jpg,right,788.5499999974854,true,high,NA,NA,NA,NA,NA,NA,NA,false
5efkeU79,3kqc8jmjhf51pencp85cgosduim3h1,3z2r0dq0jlr276ylm9o31vmzjiwe2n,5efkeU79,2020-0188,2020-06-04,19:03:44,19:32:34,NA,incomplete,74,number,1,0,left,Green_Star_Chess_4.jpg,Blue_Triangle_Grid_4.jpg,Red_Circle_Chess_3.jpg,left,816.4799999978859,true,high,NA,NA,NA,NA,NA,NA,NA,false
5efkeU79,3kqc8jmjhf51pencp85cgosduim3h1,3z2r0dq0jlr276ylm9o31vmzjiwe2n,5efkeU79,2020-0188,2020-06-04,19:03:44,19:32:34,NA,incomplete,75,number,1,1,right,Red_Circle_Dots_3.jpg,Purple_Triangle_Dots_4.jpg,Green_Star_Stripes_3.jpg,left,1399.9299999994691,false,high,NA,NA,NA,NA,NA,NA,NA,false
5efkeU79,3kqc8jmjhf51pencp85cgosduim3h1,3z2r0dq0jlr276ylm9o31vmzjiwe2n,5efkeU79,2020-0188,2020-06-04,19:03:44,19:32:34,NA,incomplete,76,number,1,1,right,Red_Plus_Chess_3.jpg,Purple_Star_Chess_1.jpg,Green_Circle_Stripes_3.jpg,left,841.4299999966752,false,high,NA,NA,NA,NA,NA,NA,NA,false
5efkeU79,3kqc8jmjhf51pencp85cgosduim3h1,3z2r0dq0jlr276ylm9o31vmzjiwe2n,5efkeU79,2020-0188,2020-06-04,19:03:44,19:32:34,NA,incomplete,77,number,1,0,right,Blue_Star_Chess_3.jpg,Green_Circle_Chess_4.jpg,Purple_Triangle_Stripes_3.jpg,right,736.2600000016391,true,high,NA,NA,NA,NA,NA,NA,NA,false
5efkeU79,3kqc8jmjhf51pencp85cgosduim3h1,3z2r0dq0jlr276ylm9o31vmzjiwe2n,5efkeU79,2020-0188,2020-06-04,19:03:44,19:32:34,NA,incomplete,78,number,1,1,right,Red_Plus_Chess_2.jpg,Green_Triangle_Chess_1.jpg,Blue_Circle_Stripes_2.jpg,right,1451.7600000000093,true,high,NA,NA,NA,NA,NA,NA,NA,false
5efkeU79,3kqc8jmjhf51pencp85cgosduim3h1,3z2r0dq0jlr276ylm9o31vmzjiwe2n,5efkeU79,2020-0188,2020-06-04,19:03:44,19:32:34,NA,incomplete,79,number,1,1,left,Blue_Star_Dots_1.jpg,Purple_Circle_Chess_1.jpg,Green_Triangle_Dots_3.jpg,left,719.3399999996182,true,high,NA,NA,NA,NA,NA,NA,NA,false
5efkeU79,3kqc8jmjhf51pencp85cgosduim3h1,3z2r0dq0jlr276ylm9o31vmzjiwe2n,5efkeU79,2020-0188,2020-06-04,19:03:44,19:32:34,NA,incomplete,80,filling,0,1,right,Red_Star_Stripes_3.jpg,Purple_Plus_Dots_3.jpg,Blue_Circle_Stripes_1.jpg,left,664.3800000019837,false,high,NA,NA,NA,NA,NA,NA,NA,false
5efkeU79,3kqc8jmjhf51pencp85cgosduim3h1,3z2r0dq0jlr276ylm9o31vmzjiwe2n,5efkeU79,2020-0188,2020-06-04,19:03:44,19:32:34,NA,incomplete,81,filling,0,1,right,Red_Circle_Chess_2.jpg,Purple_Triangle_Dots_2.jpg,Green_Star_Chess_1.jpg,left,659.3499999979977,false,high,NA,NA,NA,NA,NA,NA,NA,false
5efkeU79,3kqc8jmjhf51pencp85cgosduim3h1,3z2r0dq0jlr276ylm9o31vmzjiwe2n,5efkeU79,2020-0188,2020-06-04,19:03:44,19:32:34,NA,incomplete,82,filling,0,0,right,Red_Circle_Stripes_1.jpg,Purple_Triangle_Dots_1.jpg,Green_Star_Stripes_4.jpg,right,820.5350000024773,true,high,NA,NA,NA,NA,NA,NA,NA,false
5efkeU79,3kqc8jmjhf51pencp85cgosduim3h1,3z2r0dq0jlr276ylm9o31vmzjiwe2n,5efkeU79,2020-0188,2020-06-04,19:03:44,19:32:34,NA,incomplete,83,filling,0,1,left,Purple_Circle_Grid_3.jpg,Green_Triangle_Grid_1.jpg,Red_Plus_Stripes_3.jpg,left,810.4700000004377,true,high,NA,NA,NA,NA,NA,NA,NA,false
5efkeU79,3kqc8jmjhf51pencp85cgosduim3h1,3z2r0dq0jlr276ylm9o31vmzjiwe2n,5efkeU79,2020-0188,2020-06-04,19:03:44,19:32:34,NA,incomplete,84,filling,0,0,left,Purple_Star_Dots_1.jpg,Red_Circle_Dots_2.jpg,Blue_Triangle_Grid_1.jpg,left,764.9600000004284,true,high,NA,NA,NA,NA,NA,NA,NA,false
5efkeU79,3kqc8jmjhf51pencp85cgosduim3h1,3z2r0dq0jlr276ylm9o31vmzjiwe2n,5efkeU79,2020-0188,2020-06-04,19:03:44,19:32:34,NA,incomplete,85,filling,0,1,right,Blue_Circle_Dots_3.jpg,Green_Star_Grid_3.jpg,Red_Triangle_Dots_2.jpg,right,885.6650000016671,true,high,NA,NA,NA,NA,NA,NA,NA,false
5efkeU79,3kqc8jmjhf51pencp85cgosduim3h1,3z2r0dq0jlr276ylm9o31vmzjiwe2n,5efkeU79,2020-0188,2020-06-04,19:03:44,19:32:34,NA,incomplete,86,filling,0,0,left,Red_Triangle_Grid_3.jpg,Green_Plus_Grid_1.jpg,Blue_Circle_Chess_3.jpg,left,821.4599999992643,true,high,NA,NA,NA,NA,NA,NA,NA,false
5efkeU79,3kqc8jmjhf51pencp85cgosduim3h1,3z2r0dq0jlr276ylm9o31vmzjiwe2n,5efkeU79,2020-0188,2020-06-04,19:03:44,19:32:34,NA,incomplete,87,filling,0,1,right,Green_Circle_Dots_3.jpg,Red_Triangle_Stripes_3.jpg,Purple_Star_Dots_4.jpg,right,995.8299999998417,true,high,NA,NA,NA,NA,NA,NA,NA,false
5efkeU79,3kqc8jmjhf51pencp85cgosduim3h1,3z2r0dq0jlr276ylm9o31vmzjiwe2n,5efkeU79,2020-0188,2020-06-04,19:03:44,19:32:34,NA,incomplete,88,filling,0,1,left,Purple_Star_Dots_2.jpg,Blue_Plus_Dots_4.jpg,Green_Triangle_Chess_2.jpg,left,1319.0050000012852,true,high,NA,NA,NA,NA,NA,NA,NA,false
5efkeU79,3kqc8jmjhf51pencp85cgosduim3h1,3z2r0dq0jlr276ylm9o31vmzjiwe2n,5efkeU79,2020-0188,2020-06-04,19:03:44,19:32:34,NA,incomplete,89,filling,0,1,right,Blue_Triangle_Stripes_4.jpg,Purple_Plus_Dots_4.jpg,Red_Star_Stripes_2.jpg,right,823.2799999967683,true,high,NA,NA,NA,NA,NA,NA,NA,false
5efkeU79,3kqc8jmjhf51pencp85cgosduim3h1,3z2r0dq0jlr276ylm9o31vmzjiwe2n,5efkeU79,2020-0188,2020-06-04,19:03:44,19:32:34,NA,incomplete,90,number,1,1,right,Red_Plus_Chess_2.jpg,Blue_Triangle_Chess_1.jpg,Purple_Circle_Stripes_2.jpg,left,807.010000000475,false,high,NA,NA,NA,NA,NA,NA,NA,false
5efkeU79,3kqc8jmjhf51pencp85cgosduim3h1,3z2r0dq0jlr276ylm9o31vmzjiwe2n,5efkeU79,2020-0188,2020-06-04,19:03:44,19:32:34,NA,incomplete,91,number,1,0,left,Green_Star_Stripes_4.jpg,Red_Circle_Dots_4.jpg,Blue_Triangle_Stripes_2.jpg,left,1659.9250000000466,true,high,NA,NA,NA,NA,NA,NA,NA,false
5efkeU79,3kqc8jmjhf51pencp85cgosduim3h1,3z2r0dq0jlr276ylm9o31vmzjiwe2n,5efkeU79,2020-0188,2020-06-04,19:03:44,19:32:34,NA,incomplete,92,number,1,1,left,Purple_Plus_Grid_1.jpg,Red_Triangle_Stripes_1.jpg,Green_Star_Grid_2.jpg,left,1448.860000000568,true,high,NA,NA,NA,NA,NA,NA,NA,false
5efkeU79,3kqc8jmjhf51pencp85cgosduim3h1,3z2r0dq0jlr276ylm9o31vmzjiwe2n,5efkeU79,2020-0188,2020-06-04,19:03:44,19:32:34,NA,incomplete,93,number,1,1,right,Blue_Star_Chess_1.jpg,Red_Plus_Chess_3.jpg,Purple_Circle_Stripes_1.jpg,right,1124.8200000009965,true,high,NA,NA,NA,NA,NA,NA,NA,false
5efkeU79,3kqc8jmjhf51pencp85cgosduim3h1,3z2r0dq0jlr276ylm9o31vmzjiwe2n,5efkeU79,2020-0188,2020-06-04,19:03:44,19:32:34,NA,incomplete,94,number,1,0,left,Green_Star_Stripes_2.jpg,Red_Triangle_Chess_2.jpg,Blue_Plus_Stripes_1.jpg,right,1411.3099999995902,false,high,NA,NA,NA,NA,NA,NA,NA,false
5efkeU79,3kqc8jmjhf51pencp85cgosduim3h1,3z2r0dq0jlr276ylm9o31vmzjiwe2n,5efkeU79,2020-0188,2020-06-04,19:03:44,19:32:34,NA,incomplete,95,number,1,1,right,Red_Triangle_Grid_4.jpg,Blue_Star_Grid_1.jpg,Green_Circle_Chess_4.jpg,left,1162.779999998631,false,high,NA,NA,NA,NA,NA,NA,NA,false
5efkeU79,3kqc8jmjhf51pencp85cgosduim3h1,3z2r0dq0jlr276ylm9o31vmzjiwe2n,5efkeU79,2020-0188,2020-06-04,19:03:44,19:32:34,NA,incomplete,96,number,1,1,right,Purple_Star_Stripes_4.jpg,Green_Circle_Stripes_1.jpg,Red_Plus_Dots_4.jpg,right,1635.350000000326,true,high,NA,NA,NA,NA,NA,NA,NA,false
5efkeU79,3kqc8jmjhf51pencp85cgosduim3h1,3z2r0dq0jlr276ylm9o31vmzjiwe2n,5efkeU79,2020-0188,2020-06-04,19:03:44,19:32:34,NA,incomplete,97,number,1,1,left,Green_Plus_Chess_1.jpg,Purple_Triangle_Dots_1.jpg,Red_Circle_Chess_3.jpg,left,1495.0800000005402,true,high,NA,NA,NA,NA,NA,NA,NA,false
5efkeU79,3kqc8jmjhf51pencp85cgosduim3h1,3z2r0dq0jlr276ylm9o31vmzjiwe2n,5efkeU79,2020-0188,2020-06-04,19:03:44,19:32:34,NA,incomplete,98,number,1,0,right,Green_Star_Stripes_3.jpg,Purple_Plus_Stripes_4.jpg,Blue_Triangle_Chess_3.jpg,right,747.1199999998789,true,high,NA,NA,NA,NA,NA,NA,NA,false
5efkeU79,3kqc8jmjhf51pencp85cgosduim3h1,3z2r0dq0jlr276ylm9o31vmzjiwe2n,5efkeU79,2020-0188,2020-06-04,19:03:44,19:32:34,NA,incomplete,99,number,1,1,right,Purple_Triangle_Chess_1.jpg,Green_Circle_Chess_2.jpg,Blue_Plus_Stripes_1.jpg,left,1179.209999998333,false,high,NA,NA,NA,NA,NA,NA,NA,false
5efkeU79,3kqc8jmjhf51pencp85cgosduim3h1,3z2r0dq0jlr276ylm9o31vmzjiwe2n,5efkeU79,2020-0188,2020-06-04,19:03:44,19:32:34,NA,incomplete,100,filling,0,1,left,Blue_Star_Grid_4.jpg,Purple_Circle_Grid_3.jpg,Red_Triangle_Chess_4.jpg,right,784.1450000014156,false,high,NA,NA,NA,NA,NA,NA,NA,false
5efkeU79,3kqc8jmjhf51pencp85cgosduim3h1,3z2r0dq0jlr276ylm9o31vmzjiwe2n,5efkeU79,2020-0188,2020-06-04,19:03:44,19:32:34,NA,incomplete,101,filling,0,1,left,Red_Star_Grid_4.jpg,Purple_Plus_Grid_2.jpg,Blue_Triangle_Chess_4.jpg,right,758.0600000000559,false,high,NA,NA,NA,NA,NA,NA,NA,false
5efkeU79,3kqc8jmjhf51pencp85cgosduim3h1,3z2r0dq0jlr276ylm9o31vmzjiwe2n,5efkeU79,2020-0188,2020-06-04,19:03:44,19:32:34,NA,incomplete,102,filling,0,0,right,Red_Triangle_Chess_1.jpg,Purple_Star_Stripes_1.jpg,Green_Circle_Chess_2.jpg,left,1180.5849999981,false,high,NA,NA,NA,NA,NA,NA,NA,false
5efkeU79,3kqc8jmjhf51pencp85cgosduim3h1,3z2r0dq0jlr276ylm9o31vmzjiwe2n,5efkeU79,2020-0188,2020-06-04,19:03:44,19:32:34,NA,incomplete,103,filling,0,1,right,Purple_Star_Stripes_4.jpg,Green_Circle_Chess_4.jpg,Red_Plus_Stripes_2.jpg,right,1349.2100000001956,true,high,NA,NA,NA,NA,NA,NA,NA,false
5efkeU79,3kqc8jmjhf51pencp85cgosduim3h1,3z2r0dq0jlr276ylm9o31vmzjiwe2n,5efkeU79,2020-0188,2020-06-04,19:03:44,19:32:34,NA,incomplete,104,filling,0,1,left,Red_Triangle_Grid_2.jpg,Blue_Star_Grid_4.jpg,Green_Circle_Chess_2.jpg,left,1342.2499999979045,true,high,NA,NA,NA,NA,NA,NA,NA,false
5efkeU79,3kqc8jmjhf51pencp85cgosduim3h1,3z2r0dq0jlr276ylm9o31vmzjiwe2n,5efkeU79,2020-0188,2020-06-04,19:03:44,19:32:34,NA,incomplete,105,filling,0,0,left,Blue_Plus_Dots_4.jpg,Purple_Circle_Dots_2.jpg,Green_Triangle_Chess_4.jpg,left,1422.914999999106,true,high,NA,NA,NA,NA,NA,NA,NA,false
5efkeU79,3kqc8jmjhf51pencp85cgosduim3h1,3z2r0dq0jlr276ylm9o31vmzjiwe2n,5efkeU79,2020-0188,2020-06-04,19:03:44,19:32:34,NA,incomplete,106,filling,0,1,right,Red_Plus_Chess_3.jpg,Purple_Star_Grid_3.jpg,Green_Circle_Chess_1.jpg,right,1144.550000000978,true,high,NA,NA,NA,NA,NA,NA,NA,false
5efkeU79,3kqc8jmjhf51pencp85cgosduim3h1,3z2r0dq0jlr276ylm9o31vmzjiwe2n,5efkeU79,2020-0188,2020-06-04,19:03:44,19:32:34,NA,incomplete,107,filling,0,1,left,Green_Triangle_Stripes_2.jpg,Purple_Star_Stripes_4.jpg,Red_Plus_Dots_2.jpg,left,951.6550000007264,true,high,NA,NA,NA,NA,NA,NA,NA,false
5efkeU79,3kqc8jmjhf51pencp85cgosduim3h1,3z2r0dq0jlr276ylm9o31vmzjiwe2n,5efkeU79,2020-0188,2020-06-04,19:03:44,19:32:34,NA,incomplete,108,filling,0,1,right,Purple_Triangle_Chess_1.jpg,Blue_Star_Stripes_1.jpg,Green_Circle_Chess_3.jpg,right,840.5149999998976,true,high,NA,NA,NA,NA,NA,NA,NA,false
5efkeU79,3kqc8jmjhf51pencp85cgosduim3h1,3z2r0dq0jlr276ylm9o31vmzjiwe2n,5efkeU79,2020-0188,2020-06-04,19:03:44,19:32:34,NA,incomplete,109,filling,0,1,right,Blue_Circle_Dots_4.jpg,Green_Plus_Chess_4.jpg,Purple_Triangle_Dots_1.jpg,right,1052.8250000022817,true,high,NA,NA,NA,NA,NA,NA,NA,false
5efkeU79,3kqc8jmjhf51pencp85cgosduim3h1,3z2r0dq0jlr276ylm9o31vmzjiwe2n,5efkeU79,2020-0188,2020-06-04,19:03:44,19:32:34,NA,incomplete,110,number,1,1,right,Purple_Circle_Grid_1.jpg,Red_Plus_Grid_3.jpg,Blue_Star_Chess_1.jpg,left,770.970000001369,false,high,NA,NA,NA,NA,NA,NA,NA,false
5efkeU79,3kqc8jmjhf51pencp85cgosduim3h1,3z2r0dq0jlr276ylm9o31vmzjiwe2n,5efkeU79,2020-0188,2020-06-04,19:03:44,19:32:34,NA,incomplete,111,number,1,1,left,Green_Triangle_Chess_2.jpg,Red_Plus_Stripes_2.jpg,Blue_Circle_Chess_1.jpg,right,863.8600000012666,false,high,NA,NA,NA,NA,NA,NA,NA,false
5efkeU79,3kqc8jmjhf51pencp85cgosduim3h1,3z2r0dq0jlr276ylm9o31vmzjiwe2n,5efkeU79,2020-0188,2020-06-04,19:03:44,19:32:34,NA,incomplete,112,number,1,1,left,Blue_Circle_Chess_1.jpg,Purple_Star_Stripes_1.jpg,Red_Plus_Chess_4.jpg,left,1588.7949999994598,true,high,NA,NA,NA,NA,NA,NA,NA,false
5efkeU79,3kqc8jmjhf51pencp85cgosduim3h1,3z2r0dq0jlr276ylm9o31vmzjiwe2n,5efkeU79,2020-0188,2020-06-04,19:03:44,19:32:34,NA,incomplete,113,number,1,1,left,Red_Circle_Grid_4.jpg,Green_Triangle_Dots_4.jpg,Blue_Plus_Grid_3.jpg,left,1058.4299999971408,true,high,NA,NA,NA,NA,NA,NA,NA,false
5efkeU79,3kqc8jmjhf51pencp85cgosduim3h1,3z2r0dq0jlr276ylm9o31vmzjiwe2n,5efkeU79,2020-0188,2020-06-04,19:03:44,19:32:34,NA,incomplete,114,number,1,1,right,Purple_Star_Grid_4.jpg,Blue_Triangle_Grid_3.jpg,Green_Circle_Dots_4.jpg,right,742.4850000024308,true,high,NA,NA,NA,NA,NA,NA,NA,false
5efkeU79,3kqc8jmjhf51pencp85cgosduim3h1,3z2r0dq0jlr276ylm9o31vmzjiwe2n,5efkeU79,2020-0188,2020-06-04,19:03:44,19:32:34,NA,incomplete,115,number,1,1,right,Red_Triangle_Chess_3.jpg,Green_Circle_Chess_4.jpg,Blue_Plus_Dots_3.jpg,right,1404.6650000019,true,high,NA,NA,NA,NA,NA,NA,NA,false
5efkeU79,3kqc8jmjhf51pencp85cgosduim3h1,3z2r0dq0jlr276ylm9o31vmzjiwe2n,5efkeU79,2020-0188,2020-06-04,19:03:44,19:32:34,NA,incomplete,116,number,1,1,right,Purple_Circle_Grid_3.jpg,Red_Plus_Grid_4.jpg,Green_Star_Stripes_3.jpg,right,972.6250000020955,true,high,NA,NA,NA,NA,NA,NA,NA,false
5efkeU79,3kqc8jmjhf51pencp85cgosduim3h1,3z2r0dq0jlr276ylm9o31vmzjiwe2n,5efkeU79,2020-0188,2020-06-04,19:03:44,19:32:34,NA,incomplete,117,number,1,1,right,Purple_Circle_Dots_1.jpg,Blue_Triangle_Dots_4.jpg,Green_Plus_Stripes_1.jpg,right,745.430000002496,true,high,NA,NA,NA,NA,NA,NA,NA,false
5efkeU79,3kqc8jmjhf51pencp85cgosduim3h1,3z2r0dq0jlr276ylm9o31vmzjiwe2n,5efkeU79,2020-0188,2020-06-04,19:03:44,19:32:34,NA,incomplete,118,number,1,1,left,Purple_Star_Dots_1.jpg,Green_Triangle_Grid_1.jpg,Blue_Plus_Dots_2.jpg,left,620.7150000010151,true,high,NA,NA,NA,NA,NA,NA,NA,false
5efkeU79,3kqc8jmjhf51pencp85cgosduim3h1,3z2r0dq0jlr276ylm9o31vmzjiwe2n,5efkeU79,2020-0188,2020-06-04,19:03:44,19:32:34,NA,incomplete,119,number,1,0,left,Purple_Circle_Grid_1.jpg,Red_Plus_Dots_1.jpg,Blue_Star_Grid_4.jpg,left,734.6849999993574,true,high,NA,NA,NA,NA,NA,NA,NA,false
5efkeU79,3kqc8jmjhf51pencp85cgosduim3h1,3z2r0dq0jlr276ylm9o31vmzjiwe2n,5efkeU79,2020-0188,2020-06-04,19:03:44,19:32:34,NA,incomplete,120,race,2,0,left,A_M_04.jpg,A_F_01.jpg,C_M_12.jpg,NA,NA,NA,high,NA,NA,NA,NA,NA,NA,NA,false
5efkeU79,3kqc8jmjhf51pencp85cgosduim3h1,3z2r0dq0jlr276ylm9o31vmzjiwe2n,5efkeU79,2020-0188,2020-06-04,19:03:44,19:32:34,NA,incomplete,121,race,2,1,left,A_M_13.jpg,A_F_06.jpg,C_M_16.jpg,right,1190.4649999996182,false,high,NA,NA,NA,NA,NA,NA,NA,false
5efkeU79,3kqc8jmjhf51pencp85cgosduim3h1,3z2r0dq0jlr276ylm9o31vmzjiwe2n,5efkeU79,2020-0188,2020-06-04,19:03:44,19:32:34,NA,incomplete,122,race,2,0,left,C_M_09.jpg,C_F_06.jpg,A_M_11.jpg,left,1173.9000000015367,true,high,NA,NA,NA,NA,NA,NA,NA,false
5efkeU79,3kqc8jmjhf51pencp85cgosduim3h1,3z2r0dq0jlr276ylm9o31vmzjiwe2n,5efkeU79,2020-0188,2020-06-04,19:03:44,19:32:34,NA,incomplete,123,race,2,1,right,A_F_12.jpg,C_F_04.jpg,A_M_09.jpg,right,983.6749999995809,true,high,NA,NA,NA,NA,NA,NA,NA,false
5efkeU79,3kqc8jmjhf51pencp85cgosduim3h1,3z2r0dq0jlr276ylm9o31vmzjiwe2n,5efkeU79,2020-0188,2020-06-04,19:03:44,19:32:34,NA,incomplete,124,race,2,1,left,C_M_02.jpg,C_F_12.jpg,A_M_13.jpg,left,1097.6799999987707,true,high,NA,NA,NA,NA,NA,NA,NA,false
5efkeU79,3kqc8jmjhf51pencp85cgosduim3h1,3z2r0dq0jlr276ylm9o31vmzjiwe2n,5efkeU79,2020-0188,2020-06-04,19:03:44,19:32:34,NA,incomplete,125,race,2,1,right,C_M_04.jpg,A_M_08.jpg,C_F_07.jpg,right,1227.4949999991804,true,high,NA,NA,NA,NA,NA,NA,NA,false
5efkeU79,3kqc8jmjhf51pencp85cgosduim3h1,3z2r0dq0jlr276ylm9o31vmzjiwe2n,5efkeU79,2020-0188,2020-06-04,19:03:44,19:32:34,NA,incomplete,126,race,2,1,right,A_M_04.jpg,C_M_15.jpg,A_F_08.jpg,right,826.535000000149,true,high,NA,NA,NA,NA,NA,NA,NA,false
5efkeU79,3kqc8jmjhf51pencp85cgosduim3h1,3z2r0dq0jlr276ylm9o31vmzjiwe2n,5efkeU79,2020-0188,2020-06-04,19:03:44,19:32:34,NA,incomplete,127,race,2,1,left,C_F_10.jpg,C_M_16.jpg,A_F_12.jpg,left,1570.6849999988917,true,high,NA,NA,NA,NA,NA,NA,NA,false
5efkeU79,3kqc8jmjhf51pencp85cgosduim3h1,3z2r0dq0jlr276ylm9o31vmzjiwe2n,5efkeU79,2020-0188,2020-06-04,19:03:44,19:32:34,NA,incomplete,128,race,2,1,left,C_F_03.jpg,C_M_07.jpg,A_F_04.jpg,left,913.5249999999069,true,high,NA,NA,NA,NA,NA,NA,NA,false
5efkeU79,3kqc8jmjhf51pencp85cgosduim3h1,3z2r0dq0jlr276ylm9o31vmzjiwe2n,5efkeU79,2020-0188,2020-06-04,19:03:44,19:32:34,NA,incomplete,129,race,2,0,right,C_F_09.jpg,A_F_04.jpg,C_M_10.jpg,right,1360.2549999996554,true,high,NA,NA,NA,NA,NA,NA,NA,false
5efkeU79,3kqc8jmjhf51pencp85cgosduim3h1,3z2r0dq0jlr276ylm9o31vmzjiwe2n,5efkeU79,2020-0188,2020-06-04,19:03:44,19:32:34,NA,incomplete,130,race,2,1,left,A_F_12.jpg,A_M_03.jpg,C_F_02.jpg,right,957.2500000030268,false,high,NA,NA,NA,NA,NA,NA,NA,false
5efkeU79,3kqc8jmjhf51pencp85cgosduim3h1,3z2r0dq0jlr276ylm9o31vmzjiwe2n,5efkeU79,2020-0188,2020-06-04,19:03:44,19:32:34,NA,incomplete,131,race,2,1,right,A_F_05.jpg,C_F_07.jpg,A_M_13.jpg,right,1018.1300000003539,true,high,NA,NA,NA,NA,NA,NA,NA,false
5efkeU79,3kqc8jmjhf51pencp85cgosduim3h1,3z2r0dq0jlr276ylm9o31vmzjiwe2n,5efkeU79,2020-0188,2020-06-04,19:03:44,19:32:34,NA,incomplete,132,race,2,1,right,C_F_16.jpg,A_F_15.jpg,C_M_14.jpg,right,1367.4350000002887,true,high,NA,NA,NA,NA,NA,NA,NA,false
5efkeU79,3kqc8jmjhf51pencp85cgosduim3h1,3z2r0dq0jlr276ylm9o31vmzjiwe2n,5efkeU79,2020-0188,2020-06-04,19:03:44,19:32:34,NA,incomplete,133,race,2,1,left,C_M_03.jpg,C_F_06.jpg,A_M_09.jpg,left,1000.3649999999907,true,high,NA,NA,NA,NA,NA,NA,NA,false
5efkeU79,3kqc8jmjhf51pencp85cgosduim3h1,3z2r0dq0jlr276ylm9o31vmzjiwe2n,5efkeU79,2020-0188,2020-06-04,19:03:44,19:32:34,NA,incomplete,134,race,2,1,left,C_F_05.jpg,C_M_04.jpg,A_F_16.jpg,left,1244.425000000745,true,high,NA,NA,NA,NA,NA,NA,NA,false
5efkeU79,3kqc8jmjhf51pencp85cgosduim3h1,3z2r0dq0jlr276ylm9o31vmzjiwe2n,5efkeU79,2020-0188,2020-06-04,19:03:44,19:32:34,NA,incomplete,135,race,2,1,left,C_M_08.jpg,C_F_07.jpg,A_M_13.jpg,left,1219.300000000745,true,high,NA,NA,NA,NA,NA,NA,NA,false
5efkeU79,3kqc8jmjhf51pencp85cgosduim3h1,3z2r0dq0jlr276ylm9o31vmzjiwe2n,5efkeU79,2020-0188,2020-06-04,19:03:44,19:32:34,NA,incomplete,136,race,2,0,right,C_F_10.jpg,A_F_11.jpg,C_M_16.jpg,left,1324.5250000001397,false,high,NA,NA,NA,NA,NA,NA,NA,false
5efkeU79,3kqc8jmjhf51pencp85cgosduim3h1,3z2r0dq0jlr276ylm9o31vmzjiwe2n,5efkeU79,2020-0188,2020-06-04,19:03:44,19:32:34,NA,incomplete,137,race,2,1,right,A_M_08.jpg,C_M_10.jpg,A_F_01.jpg,left,1000.4599999992643,false,high,NA,NA,NA,NA,NA,NA,NA,false
5efkeU79,3kqc8jmjhf51pencp85cgosduim3h1,3z2r0dq0jlr276ylm9o31vmzjiwe2n,5efkeU79,2020-0188,2020-06-04,19:03:44,19:32:34,NA,incomplete,138,race,2,1,right,C_F_14.jpg,A_F_08.jpg,C_M_11.jpg,right,1336.074999999255,true,high,NA,NA,NA,NA,NA,NA,NA,false
5efkeU79,3kqc8jmjhf51pencp85cgosduim3h1,3z2r0dq0jlr276ylm9o31vmzjiwe2n,5efkeU79,2020-0188,2020-06-04,19:03:44,19:32:34,NA,incomplete,139,race,2,1,left,A_M_09.jpg,A_F_07.jpg,C_M_02.jpg,left,867.8150000015739,true,high,NA,NA,NA,NA,NA,NA,NA,false
5efkeU79,3kqc8jmjhf51pencp85cgosduim3h1,3z2r0dq0jlr276ylm9o31vmzjiwe2n,5efkeU79,2020-0188,2020-06-04,19:03:44,19:32:34,NA,incomplete,140,gender,3,1,right,C_F_02.jpg,C_M_12.jpg,A_F_15.jpg,left,1211.1800000020303,false,high,NA,NA,NA,NA,NA,NA,NA,false
5efkeU79,3kqc8jmjhf51pencp85cgosduim3h1,3z2r0dq0jlr276ylm9o31vmzjiwe2n,5efkeU79,2020-0188,2020-06-04,19:03:44,19:32:34,NA,incomplete,141,gender,3,0,left,A_F_05.jpg,C_F_06.jpg,A_M_11.jpg,right,1079.5949999992736,false,high,NA,NA,NA,NA,NA,NA,NA,false
5efkeU79,3kqc8jmjhf51pencp85cgosduim3h1,3z2r0dq0jlr276ylm9o31vmzjiwe2n,5efkeU79,2020-0188,2020-06-04,19:03:44,19:32:34,NA,incomplete,142,gender,3,1,left,C_F_10.jpg,A_F_03.jpg,C_M_04.jpg,left,1494.6100000014994,true,high,NA,NA,NA,NA,NA,NA,NA,false
5efkeU79,3kqc8jmjhf51pencp85cgosduim3h1,3z2r0dq0jlr276ylm9o31vmzjiwe2n,5efkeU79,2020-0188,2020-06-04,19:03:44,19:32:34,NA,incomplete,143,gender,3,1,left,C_F_14.jpg,A_F_08.jpg,C_M_03.jpg,right,1318.4700000018347,false,high,NA,NA,NA,NA,NA,NA,NA,false
5efkeU79,3kqc8jmjhf51pencp85cgosduim3h1,3z2r0dq0jlr276ylm9o31vmzjiwe2n,5efkeU79,2020-0188,2020-06-04,19:03:44,19:32:34,NA,incomplete,144,gender,3,1,right,C_M_16.jpg,C_F_14.jpg,A_M_08.jpg,none,0,false,high,NA,NA,NA,NA,NA,NA,NA,false
5efkeU79,3kqc8jmjhf51pencp85cgosduim3h1,3z2r0dq0jlr276ylm9o31vmzjiwe2n,5efkeU79,2020-0188,2020-06-04,19:03:44,19:32:34,NA,incomplete,145,gender,3,1,right,A_F_03.jpg,A_M_08.jpg,C_F_05.jpg,right,1087.415000001667,true,high,NA,NA,NA,NA,NA,NA,NA,false
5efkeU79,3kqc8jmjhf51pencp85cgosduim3h1,3z2r0dq0jlr276ylm9o31vmzjiwe2n,5efkeU79,2020-0188,2020-06-04,19:03:44,19:32:34,NA,incomplete,146,gender,3,0,right,C_M_11.jpg,C_F_14.jpg,A_M_07.jpg,right,1023.5050000010524,true,high,NA,NA,NA,NA,NA,NA,NA,false
5efkeU79,3kqc8jmjhf51pencp85cgosduim3h1,3z2r0dq0jlr276ylm9o31vmzjiwe2n,5efkeU79,2020-0188,2020-06-04,19:03:44,19:32:34,NA,incomplete,147,gender,3,1,right,C_M_10.jpg,C_F_15.jpg,A_M_02.jpg,right,1285.719999999972,true,high,NA,NA,NA,NA,NA,NA,NA,false
5efkeU79,3kqc8jmjhf51pencp85cgosduim3h1,3z2r0dq0jlr276ylm9o31vmzjiwe2n,5efkeU79,2020-0188,2020-06-04,19:03:44,19:32:34,NA,incomplete,148,gender,3,1,left,A_M_08.jpg,C_M_16.jpg,A_F_14.jpg,left,1101.6350000028033,true,high,NA,NA,NA,NA,NA,NA,NA,false
5efkeU79,3kqc8jmjhf51pencp85cgosduim3h1,3z2r0dq0jlr276ylm9o31vmzjiwe2n,5efkeU79,2020-0188,2020-06-04,19:03:44,19:32:34,NA,incomplete,149,gender,3,1,right,C_F_05.jpg,C_M_03.jpg,A_F_11.jpg,right,831.4700000011362,true,high,NA,NA,NA,NA,NA,NA,NA,false
5efkeU79,3kqc8jmjhf51pencp85cgosduim3h1,3z2r0dq0jlr276ylm9o31vmzjiwe2n,5efkeU79,2020-0188,2020-06-04,19:03:44,19:32:34,NA,incomplete,150,gender,3,1,right,A_M_03.jpg,A_F_04.jpg,C_M_10.jpg,right,1132.5550000001676,true,high,NA,NA,NA,NA,NA,NA,NA,false
5efkeU79,3kqc8jmjhf51pencp85cgosduim3h1,3z2r0dq0jlr276ylm9o31vmzjiwe2n,5efkeU79,2020-0188,2020-06-04,19:03:44,19:32:34,NA,incomplete,151,gender,3,0,right,A_M_16.jpg,A_F_06.jpg,C_M_05.jpg,right,1417.1650000023656,true,high,NA,NA,NA,NA,NA,NA,NA,false
5efkeU79,3kqc8jmjhf51pencp85cgosduim3h1,3z2r0dq0jlr276ylm9o31vmzjiwe2n,5efkeU79,2020-0188,2020-06-04,19:03:44,19:32:34,NA,incomplete,152,gender,3,1,right,C_M_05.jpg,C_F_10.jpg,A_M_04.jpg,right,1111.4799999995157,true,high,NA,NA,NA,NA,NA,NA,NA,false
5efkeU79,3kqc8jmjhf51pencp85cgosduim3h1,3z2r0dq0jlr276ylm9o31vmzjiwe2n,5efkeU79,2020-0188,2020-06-04,19:03:44,19:32:34,NA,incomplete,153,gender,3,1,right,A_F_08.jpg,A_M_03.jpg,C_F_10.jpg,right,1581.1500000020023,true,high,NA,NA,NA,NA,NA,NA,NA,false
5efkeU79,3kqc8jmjhf51pencp85cgosduim3h1,3z2r0dq0jlr276ylm9o31vmzjiwe2n,5efkeU79,2020-0188,2020-06-04,19:03:44,19:32:34,NA,incomplete,154,gender,3,1,left,A_F_15.jpg,C_F_07.jpg,A_M_10.jpg,left,1263.0700000007637,true,high,NA,NA,NA,NA,NA,NA,NA,false
5efkeU79,3kqc8jmjhf51pencp85cgosduim3h1,3z2r0dq0jlr276ylm9o31vmzjiwe2n,5efkeU79,2020-0188,2020-06-04,19:03:44,19:32:34,NA,incomplete,155,gender,3,1,left,C_M_11.jpg,A_M_02.jpg,C_F_10.jpg,left,967.8249999997206,true,high,NA,NA,NA,NA,NA,NA,NA,false
5efkeU79,3kqc8jmjhf51pencp85cgosduim3h1,3z2r0dq0jlr276ylm9o31vmzjiwe2n,5efkeU79,2020-0188,2020-06-04,19:03:44,19:32:34,NA,incomplete,156,gender,3,0,right,C_F_05.jpg,C_M_02.jpg,A_F_13.jpg,right,1263.5800000024028,true,high,NA,NA,NA,NA,NA,NA,NA,false
5efkeU79,3kqc8jmjhf51pencp85cgosduim3h1,3z2r0dq0jlr276ylm9o31vmzjiwe2n,5efkeU79,2020-0188,2020-06-04,19:03:44,19:32:34,NA,incomplete,157,gender,3,1,right,A_F_03.jpg,A_M_01.jpg,C_F_02.jpg,left,1523.0200000004843,false,high,NA,NA,NA,NA,NA,NA,NA,false
5efkeU79,3kqc8jmjhf51pencp85cgosduim3h1,3z2r0dq0jlr276ylm9o31vmzjiwe2n,5efkeU79,2020-0188,2020-06-04,19:03:44,19:32:34,NA,incomplete,158,gender,3,1,left,A_M_04.jpg,C_M_03.jpg,A_F_05.jpg,left,1188.945000001695,true,high,NA,NA,NA,NA,NA,NA,NA,false
5efkeU79,3kqc8jmjhf51pencp85cgosduim3h1,3z2r0dq0jlr276ylm9o31vmzjiwe2n,5efkeU79,2020-0188,2020-06-04,19:03:44,19:32:34,NA,incomplete,159,gender,3,1,right,C_F_04.jpg,C_M_01.jpg,A_F_03.jpg,right,1784.050000002142,true,high,NA,NA,NA,NA,NA,NA,NA,false
5efkeU79,3kqc8jmjhf51pencp85cgosduim3h1,3z2r0dq0jlr276ylm9o31vmzjiwe2n,5efkeU79,2020-0188,2020-06-04,19:03:44,19:32:34,NA,incomplete,160,race,2,1,left,A_M_06.jpg,A_F_08.jpg,C_M_15.jpg,right,1455.3000000014435,false,high,NA,NA,NA,NA,NA,NA,NA,false
5efkeU79,3kqc8jmjhf51pencp85cgosduim3h1,3z2r0dq0jlr276ylm9o31vmzjiwe2n,5efkeU79,2020-0188,2020-06-04,19:03:44,19:32:34,NA,incomplete,161,race,2,0,left,A_M_06.jpg,A_F_15.jpg,C_M_12.jpg,right,929.6349999967497,false,high,NA,NA,NA,NA,NA,NA,NA,false
5efkeU79,3kqc8jmjhf51pencp85cgosduim3h1,3z2r0dq0jlr276ylm9o31vmzjiwe2n,5efkeU79,2020-0188,2020-06-04,19:03:44,19:32:34,NA,incomplete,162,race,2,1,left,C_F_13.jpg,C_M_02.jpg,A_F_07.jpg,left,790.1249999995343,true,high,NA,NA,NA,NA,NA,NA,NA,false
5efkeU79,3kqc8jmjhf51pencp85cgosduim3h1,3z2r0dq0jlr276ylm9o31vmzjiwe2n,5efkeU79,2020-0188,2020-06-04,19:03:44,19:32:34,NA,incomplete,163,race,2,0,left,A_F_07.jpg,A_M_09.jpg,C_F_10.jpg,right,1539.6399999989662,false,high,NA,NA,NA,NA,NA,NA,NA,false
5efkeU79,3kqc8jmjhf51pencp85cgosduim3h1,3z2r0dq0jlr276ylm9o31vmzjiwe2n,5efkeU79,2020-0188,2020-06-04,19:03:44,19:32:34,NA,incomplete,164,race,2,1,right,C_F_07.jpg,A_F_08.jpg,C_M_03.jpg,left,1103.879999998724,false,high,NA,NA,NA,NA,NA,NA,NA,false
5efkeU79,3kqc8jmjhf51pencp85cgosduim3h1,3z2r0dq0jlr276ylm9o31vmzjiwe2n,5efkeU79,2020-0188,2020-06-04,19:03:44,19:32:34,NA,incomplete,165,race,2,1,left,A_M_15.jpg,A_F_16.jpg,C_M_05.jpg,left,1714.9700000009034,true,high,NA,NA,NA,NA,NA,NA,NA,false
5efkeU79,3kqc8jmjhf51pencp85cgosduim3h1,3z2r0dq0jlr276ylm9o31vmzjiwe2n,5efkeU79,2020-0188,2020-06-04,19:03:44,19:32:34,NA,incomplete,166,race,2,1,right,C_M_07.jpg,A_M_04.jpg,C_F_14.jpg,right,1314.5200000000186,true,high,NA,NA,NA,NA,NA,NA,NA,false
5efkeU79,3kqc8jmjhf51pencp85cgosduim3h1,3z2r0dq0jlr276ylm9o31vmzjiwe2n,5efkeU79,2020-0188,2020-06-04,19:03:44,19:32:34,NA,incomplete,167,race,2,0,left,A_M_05.jpg,A_F_06.jpg,C_M_07.jpg,left,1505.0550000015646,true,high,NA,NA,NA,NA,NA,NA,NA,false
5efkeU79,3kqc8jmjhf51pencp85cgosduim3h1,3z2r0dq0jlr276ylm9o31vmzjiwe2n,5efkeU79,2020-0188,2020-06-04,19:03:44,19:32:34,NA,incomplete,168,race,2,1,left,A_F_01.jpg,A_M_13.jpg,C_F_02.jpg,left,1100.3200000012293,true,high,NA,NA,NA,NA,NA,NA,NA,false
5efkeU79,3kqc8jmjhf51pencp85cgosduim3h1,3z2r0dq0jlr276ylm9o31vmzjiwe2n,5efkeU79,2020-0188,2020-06-04,19:03:44,19:32:34,NA,incomplete,169,race,2,1,right,C_M_06.jpg,A_M_04.jpg,C_F_08.jpg,right,919.4549999991432,true,high,NA,NA,NA,NA,NA,NA,NA,false
5efkeU79,3kqc8jmjhf51pencp85cgosduim3h1,3z2r0dq0jlr276ylm9o31vmzjiwe2n,5efkeU79,2020-0188,2020-06-04,19:03:44,19:32:34,NA,incomplete,170,race,2,1,left,A_M_03.jpg,A_F_10.jpg,C_M_01.jpg,left,1523.574999999255,true,high,NA,NA,NA,NA,NA,NA,NA,false
5efkeU79,3kqc8jmjhf51pencp85cgosduim3h1,3z2r0dq0jlr276ylm9o31vmzjiwe2n,5efkeU79,2020-0188,2020-06-04,19:03:44,19:32:34,NA,incomplete,171,race,2,1,left,A_M_12.jpg,A_F_07.jpg,C_M_06.jpg,left,1119.5850000004284,true,high,NA,NA,NA,NA,NA,NA,NA,false
5efkeU79,3kqc8jmjhf51pencp85cgosduim3h1,3z2r0dq0jlr276ylm9o31vmzjiwe2n,5efkeU79,2020-0188,2020-06-04,19:03:44,19:32:34,NA,incomplete,172,race,2,1,right,A_M_11.jpg,C_M_08.jpg,A_F_14.jpg,right,956.5599999986589,true,high,NA,NA,NA,NA,NA,NA,NA,false
5efkeU79,3kqc8jmjhf51pencp85cgosduim3h1,3z2r0dq0jlr276ylm9o31vmzjiwe2n,5efkeU79,2020-0188,2020-06-04,19:03:44,19:32:34,NA,incomplete,173,race,2,1,right,C_M_12.jpg,A_M_09.jpg,C_F_15.jpg,right,1126.4950000003446,true,high,NA,NA,NA,NA,NA,NA,NA,false
5efkeU79,3kqc8jmjhf51pencp85cgosduim3h1,3z2r0dq0jlr276ylm9o31vmzjiwe2n,5efkeU79,2020-0188,2020-06-04,19:03:44,19:32:34,NA,incomplete,174,race,2,1,left,A_F_16.jpg,A_M_03.jpg,C_F_11.jpg,left,1229.5750000013504,true,high,NA,NA,NA,NA,NA,NA,NA,false
5efkeU79,3kqc8jmjhf51pencp85cgosduim3h1,3z2r0dq0jlr276ylm9o31vmzjiwe2n,5efkeU79,2020-0188,2020-06-04,19:03:44,19:32:34,NA,incomplete,175,race,2,0,left,A_M_11.jpg,A_F_09.jpg,C_M_03.jpg,right,653.1649999998044,false,high,NA,NA,NA,NA,NA,NA,NA,false
5efkeU79,3kqc8jmjhf51pencp85cgosduim3h1,3z2r0dq0jlr276ylm9o31vmzjiwe2n,5efkeU79,2020-0188,2020-06-04,19:03:44,19:32:34,NA,incomplete,176,race,2,1,right,C_F_07.jpg,A_F_08.jpg,C_M_15.jpg,left,1441.2799999990966,false,high,NA,NA,NA,NA,NA,NA,NA,false
5efkeU79,3kqc8jmjhf51pencp85cgosduim3h1,3z2r0dq0jlr276ylm9o31vmzjiwe2n,5efkeU79,2020-0188,2020-06-04,19:03:44,19:32:34,NA,incomplete,177,race,2,1,left,C_F_04.jpg,C_M_10.jpg,A_F_13.jpg,right,1262.0500000012107,false,high,NA,NA,NA,NA,NA,NA,NA,false
5efkeU79,3kqc8jmjhf51pencp85cgosduim3h1,3z2r0dq0jlr276ylm9o31vmzjiwe2n,5efkeU79,2020-0188,2020-06-04,19:03:44,19:32:34,NA,incomplete,178,race,2,0,left,A_F_07.jpg,A_M_03.jpg,C_F_11.jpg,left,1352.62999999756,true,high,NA,NA,NA,NA,NA,NA,NA,false
5efkeU79,3kqc8jmjhf51pencp85cgosduim3h1,3z2r0dq0jlr276ylm9o31vmzjiwe2n,5efkeU79,2020-0188,2020-06-04,19:03:44,19:32:34,NA,incomplete,179,race,2,1,left,C_M_11.jpg,C_F_04.jpg,A_M_06.jpg,right,1662.3199999995995,false,high,NA,NA,NA,NA,NA,NA,NA,false
5efkeU79,3kqc8jmjhf51pencp85cgosduim3h1,3z2r0dq0jlr276ylm9o31vmzjiwe2n,5efkeU79,2020-0188,2020-06-04,19:03:44,19:32:34,NA,incomplete,180,gender,3,1,left,A_F_04.jpg,C_F_15.jpg,A_M_08.jpg,right,1109.1249999990687,false,high,NA,NA,NA,NA,NA,NA,NA,false
5efkeU79,3kqc8jmjhf51pencp85cgosduim3h1,3z2r0dq0jlr276ylm9o31vmzjiwe2n,5efkeU79,2020-0188,2020-06-04,19:03:44,19:32:34,NA,incomplete,181,gender,3,1,left,A_M_16.jpg,C_M_03.jpg,A_F_08.jpg,right,1377.5600000007544,false,high,NA,NA,NA,NA,NA,NA,NA,false
5efkeU79,3kqc8jmjhf51pencp85cgosduim3h1,3z2r0dq0jlr276ylm9o31vmzjiwe2n,5efkeU79,2020-0188,2020-06-04,19:03:44,19:32:34,NA,incomplete,182,gender,3,0,right,C_M_01.jpg,C_F_14.jpg,A_M_08.jpg,right,1155.8250000015832,true,high,NA,NA,NA,NA,NA,NA,NA,false
5efkeU79,3kqc8jmjhf51pencp85cgosduim3h1,3z2r0dq0jlr276ylm9o31vmzjiwe2n,5efkeU79,2020-0188,2020-06-04,19:03:44,19:32:34,NA,incomplete,183,gender,3,1,left,A_M_16.jpg,C_M_15.jpg,A_F_07.jpg,left,1131.4600000004284,true,high,NA,NA,NA,NA,NA,NA,NA,false
5efkeU79,3kqc8jmjhf51pencp85cgosduim3h1,3z2r0dq0jlr276ylm9o31vmzjiwe2n,5efkeU79,2020-0188,2020-06-04,19:03:44,19:32:34,NA,incomplete,184,gender,3,0,right,C_F_03.jpg,C_M_15.jpg,A_F_02.jpg,right,851.9400000004098,true,high,NA,NA,NA,NA,NA,NA,NA,false
5efkeU79,3kqc8jmjhf51pencp85cgosduim3h1,3z2r0dq0jlr276ylm9o31vmzjiwe2n,5efkeU79,2020-0188,2020-06-04,19:03:44,19:32:34,NA,incomplete,185,gender,3,1,right,C_F_02.jpg,C_M_04.jpg,A_F_13.jpg,left,888.6149999997579,false,high,NA,NA,NA,NA,NA,NA,NA,false
5efkeU79,3kqc8jmjhf51pencp85cgosduim3h1,3z2r0dq0jlr276ylm9o31vmzjiwe2n,5efkeU79,2020-0188,2020-06-04,19:03:44,19:32:34,NA,incomplete,186,gender,3,1,left,C_M_13.jpg,A_M_07.jpg,C_F_09.jpg,right,1155.0449999996927,false,high,NA,NA,NA,NA,NA,NA,NA,false
5efkeU79,3kqc8jmjhf51pencp85cgosduim3h1,3z2r0dq0jlr276ylm9o31vmzjiwe2n,5efkeU79,2020-0188,2020-06-04,19:03:44,19:32:34,NA,incomplete,187,gender,3,1,left,A_M_12.jpg,C_M_06.jpg,A_F_03.jpg,left,1414.585000002291,true,high,NA,NA,NA,NA,NA,NA,NA,false
5efkeU79,3kqc8jmjhf51pencp85cgosduim3h1,3z2r0dq0jlr276ylm9o31vmzjiwe2n,5efkeU79,2020-0188,2020-06-04,19:03:44,19:32:34,NA,incomplete,188,gender,3,0,right,A_F_08.jpg,A_M_01.jpg,C_F_14.jpg,left,1321.6699999975972,false,high,NA,NA,NA,NA,NA,NA,NA,false
5efkeU79,3kqc8jmjhf51pencp85cgosduim3h1,3z2r0dq0jlr276ylm9o31vmzjiwe2n,5efkeU79,2020-0188,2020-06-04,19:03:44,19:32:34,NA,incomplete,189,gender,3,1,left,C_M_04.jpg,A_M_06.jpg,C_F_02.jpg,right,1272.0099999969825,false,high,NA,NA,NA,NA,NA,NA,NA,false
5efkeU79,3kqc8jmjhf51pencp85cgosduim3h1,3z2r0dq0jlr276ylm9o31vmzjiwe2n,5efkeU79,2020-0188,2020-06-04,19:03:44,19:32:34,NA,incomplete,190,gender,3,1,right,A_M_12.jpg,A_F_09.jpg,C_M_01.jpg,left,1308.9249999974854,false,high,NA,NA,NA,NA,NA,NA,NA,false
5efkeU79,3kqc8jmjhf51pencp85cgosduim3h1,3z2r0dq0jlr276ylm9o31vmzjiwe2n,5efkeU79,2020-0188,2020-06-04,19:03:44,19:32:34,NA,incomplete,191,gender,3,1,right,C_M_01.jpg,C_F_03.jpg,A_M_14.jpg,right,964.7599999988452,true,high,NA,NA,NA,NA,NA,NA,NA,false
5efkeU79,3kqc8jmjhf51pencp85cgosduim3h1,3z2r0dq0jlr276ylm9o31vmzjiwe2n,5efkeU79,2020-0188,2020-06-04,19:03:44,19:32:34,NA,incomplete,192,gender,3,1,right,C_M_06.jpg,C_F_07.jpg,A_M_13.jpg,right,1453.0300000004936,true,high,NA,NA,NA,NA,NA,NA,NA,false
5efkeU79,3kqc8jmjhf51pencp85cgosduim3h1,3z2r0dq0jlr276ylm9o31vmzjiwe2n,5efkeU79,2020-0188,2020-06-04,19:03:44,19:32:34,NA,incomplete,193,gender,3,1,right,C_M_16.jpg,C_F_07.jpg,A_M_13.jpg,right,880.1849999979604,true,high,NA,NA,NA,NA,NA,NA,NA,false
5efkeU79,3kqc8jmjhf51pencp85cgosduim3h1,3z2r0dq0jlr276ylm9o31vmzjiwe2n,5efkeU79,2020-0188,2020-06-04,19:03:44,19:32:34,NA,incomplete,194,gender,3,1,left,A_M_12.jpg,C_M_11.jpg,A_F_04.jpg,left,728.2950000008568,true,high,NA,NA,NA,NA,NA,NA,NA,false
5efkeU79,3kqc8jmjhf51pencp85cgosduim3h1,3z2r0dq0jlr276ylm9o31vmzjiwe2n,5efkeU79,2020-0188,2020-06-04,19:03:44,19:32:34,NA,incomplete,195,gender,3,0,left,C_F_04.jpg,A_F_01.jpg,C_M_15.jpg,right,1545.2949999996927,false,high,NA,NA,NA,NA,NA,NA,NA,false
5efkeU79,3kqc8jmjhf51pencp85cgosduim3h1,3z2r0dq0jlr276ylm9o31vmzjiwe2n,5efkeU79,2020-0188,2020-06-04,19:03:44,19:32:34,NA,incomplete,196,gender,3,1,right,A_F_08.jpg,A_M_16.jpg,C_F_03.jpg,left,1831.7749999987427,false,high,NA,NA,NA,NA,NA,NA,NA,false
5efkeU79,3kqc8jmjhf51pencp85cgosduim3h1,3z2r0dq0jlr276ylm9o31vmzjiwe2n,5efkeU79,2020-0188,2020-06-04,19:03:44,19:32:34,NA,incomplete,197,gender,3,1,right,C_M_16.jpg,C_F_02.jpg,A_M_08.jpg,right,745.3100000021514,true,high,NA,NA,NA,NA,NA,NA,NA,false
5efkeU79,3kqc8jmjhf51pencp85cgosduim3h1,3z2r0dq0jlr276ylm9o31vmzjiwe2n,5efkeU79,2020-0188,2020-06-04,19:03:44,19:32:34,NA,incomplete,198,gender,3,1,right,C_F_03.jpg,C_M_07.jpg,A_F_15.jpg,left,1488.3800000026822,false,high,NA,NA,NA,NA,NA,NA,NA,false
5efkeU79,3kqc8jmjhf51pencp85cgosduim3h1,3z2r0dq0jlr276ylm9o31vmzjiwe2n,5efkeU79,2020-0188,2020-06-04,19:03:44,19:32:34,NA,incomplete,199,gender,3,0,right,A_F_06.jpg,A_M_05.jpg,C_F_02.jpg,right,962.880000002915,true,high,NA,NA,NA,NA,NA,NA,NA,false
5efkeU79,3kqc8jmjhf51pencp85cgosduim3h1,3z2r0dq0jlr276ylm9o31vmzjiwe2n,5efkeU79,2020-0188,2020-06-04,19:03:44,19:32:34,NA,incomplete,200,race,2,1,left,C_F_14.jpg,C_M_09.jpg,A_F_08.jpg,right,1302.0550000001676,false,high,NA,NA,NA,NA,NA,NA,NA,false
5efkeU79,3kqc8jmjhf51pencp85cgosduim3h1,3z2r0dq0jlr276ylm9o31vmzjiwe2n,5efkeU79,2020-0188,2020-06-04,19:03:44,19:32:34,NA,incomplete,201,race,2,1,right,C_F_16.jpg,A_F_12.jpg,C_M_08.jpg,right,1773.3899999985006,true,high,NA,NA,NA,NA,NA,NA,NA,false
5efkeU79,3kqc8jmjhf51pencp85cgosduim3h1,3z2r0dq0jlr276ylm9o31vmzjiwe2n,5efkeU79,2020-0188,2020-06-04,19:03:44,19:32:34,NA,incomplete,202,race,2,0,left,A_M_01.jpg,A_F_04.jpg,C_M_11.jpg,left,882.8299999986775,true,high,NA,NA,NA,NA,NA,NA,NA,false
5efkeU79,3kqc8jmjhf51pencp85cgosduim3h1,3z2r0dq0jlr276ylm9o31vmzjiwe2n,5efkeU79,2020-0188,2020-06-04,19:03:44,19:32:34,NA,incomplete,203,race,2,1,left,C_F_14.jpg,C_M_13.jpg,A_F_04.jpg,left,968.3100000000559,true,high,NA,NA,NA,NA,NA,NA,NA,false
5efkeU79,3kqc8jmjhf51pencp85cgosduim3h1,3z2r0dq0jlr276ylm9o31vmzjiwe2n,5efkeU79,2020-0188,2020-06-04,19:03:44,19:32:34,NA,incomplete,204,race,2,1,left,C_F_04.jpg,C_M_02.jpg,A_F_15.jpg,left,1795.324999999255,true,high,NA,NA,NA,NA,NA,NA,NA,false
5efkeU79,3kqc8jmjhf51pencp85cgosduim3h1,3z2r0dq0jlr276ylm9o31vmzjiwe2n,5efkeU79,2020-0188,2020-06-04,19:03:44,19:32:34,NA,incomplete,205,race,2,1,left,A_M_01.jpg,A_F_13.jpg,C_M_11.jpg,left,1291.6550000009593,true,high,NA,NA,NA,NA,NA,NA,NA,false
5efkeU79,3kqc8jmjhf51pencp85cgosduim3h1,3z2r0dq0jlr276ylm9o31vmzjiwe2n,5efkeU79,2020-0188,2020-06-04,19:03:44,19:32:34,NA,incomplete,206,race,2,0,right,C_F_11.jpg,A_F_01.jpg,C_M_05.jpg,left,1377.1549999981653,false,high,NA,NA,NA,NA,NA,NA,NA,false
5efkeU79,3kqc8jmjhf51pencp85cgosduim3h1,3z2r0dq0jlr276ylm9o31vmzjiwe2n,5efkeU79,2020-0188,2020-06-04,19:03:44,19:32:34,NA,incomplete,207,race,2,1,right,C_M_02.jpg,A_M_16.jpg,C_F_12.jpg,right,1230.1549999974668,true,high,NA,NA,NA,NA,NA,NA,NA,false
5efkeU79,3kqc8jmjhf51pencp85cgosduim3h1,3z2r0dq0jlr276ylm9o31vmzjiwe2n,5efkeU79,2020-0188,2020-06-04,19:03:44,19:32:34,NA,incomplete,208,race,2,1,left,C_M_13.jpg,C_F_03.jpg,A_M_09.jpg,left,850.0149999998976,true,high,NA,NA,NA,NA,NA,NA,NA,false
5efkeU79,3kqc8jmjhf51pencp85cgosduim3h1,3z2r0dq0jlr276ylm9o31vmzjiwe2n,5efkeU79,2020-0188,2020-06-04,19:03:44,19:32:34,NA,incomplete,209,race,2,1,right,C_M_03.jpg,A_M_05.jpg,C_F_12.jpg,right,1068.5249999987427,true,high,NA,NA,NA,NA,NA,NA,NA,false
5efkeU79,3kqc8jmjhf51pencp85cgosduim3h1,3z2r0dq0jlr276ylm9o31vmzjiwe2n,5efkeU79,2020-0188,2020-06-04,19:03:44,19:32:34,NA,incomplete,210,race,2,1,left,C_M_11.jpg,C_F_16.jpg,A_M_05.jpg,left,1096.0399999967776,true,high,NA,NA,NA,NA,NA,NA,NA,false
5efkeU79,3kqc8jmjhf51pencp85cgosduim3h1,3z2r0dq0jlr276ylm9o31vmzjiwe2n,5efkeU79,2020-0188,2020-06-04,19:03:44,19:32:34,NA,incomplete,211,race,2,0,left,A_M_14.jpg,A_F_02.jpg,C_M_13.jpg,left,911.124999998603,true,high,NA,NA,NA,NA,NA,NA,NA,false
5efkeU79,3kqc8jmjhf51pencp85cgosduim3h1,3z2r0dq0jlr276ylm9o31vmzjiwe2n,5efkeU79,2020-0188,2020-06-04,19:03:44,19:32:34,NA,incomplete,212,race,2,1,left,C_F_13.jpg,C_M_01.jpg,A_F_07.jpg,left,1100.4800000009127,true,high,NA,NA,NA,NA,NA,NA,NA,false
5efkeU79,3kqc8jmjhf51pencp85cgosduim3h1,3z2r0dq0jlr276ylm9o31vmzjiwe2n,5efkeU79,2020-0188,2020-06-04,19:03:44,19:32:34,NA,incomplete,213,race,2,1,left,A_M_03.jpg,A_F_11.jpg,C_M_12.jpg,right,1053.334999996936,false,high,NA,NA,NA,NA,NA,NA,NA,false
5efkeU79,3kqc8jmjhf51pencp85cgosduim3h1,3z2r0dq0jlr276ylm9o31vmzjiwe2n,5efkeU79,2020-0188,2020-06-04,19:03:44,19:32:34,NA,incomplete,214,race,2,1,right,C_F_13.jpg,A_F_11.jpg,C_M_07.jpg,right,1170.0049999998882,true,high,NA,NA,NA,NA,NA,NA,NA,false
5efkeU79,3kqc8jmjhf51pencp85cgosduim3h1,3z2r0dq0jlr276ylm9o31vmzjiwe2n,5efkeU79,2020-0188,2020-06-04,19:03:44,19:32:34,NA,incomplete,215,race,2,1,left,A_F_10.jpg,A_M_04.jpg,C_F_09.jpg,left,1208.824999997858,true,high,NA,NA,NA,NA,NA,NA,NA,false
5efkeU79,3kqc8jmjhf51pencp85cgosduim3h1,3z2r0dq0jlr276ylm9o31vmzjiwe2n,5efkeU79,2020-0188,2020-06-04,19:03:44,19:32:34,NA,incomplete,216,race,2,1,left,C_M_07.jpg,C_F_09.jpg,A_M_06.jpg,left,1595.0550000015646,true,high,NA,NA,NA,NA,NA,NA,NA,false
5efkeU79,3kqc8jmjhf51pencp85cgosduim3h1,3z2r0dq0jlr276ylm9o31vmzjiwe2n,5efkeU79,2020-0188,2020-06-04,19:03:44,19:32:34,NA,incomplete,217,race,2,1,right,A_F_15.jpg,C_F_14.jpg,A_M_07.jpg,right,1707.1149999974295,true,high,NA,NA,NA,NA,NA,NA,NA,false
5efkeU79,3kqc8jmjhf51pencp85cgosduim3h1,3z2r0dq0jlr276ylm9o31vmzjiwe2n,5efkeU79,2020-0188,2020-06-04,19:03:44,19:32:34,NA,incomplete,218,race,2,0,left,C_F_14.jpg,C_M_06.jpg,A_F_12.jpg,left,1377.860000000568,true,high,NA,NA,NA,NA,NA,NA,NA,false
5efkeU79,3kqc8jmjhf51pencp85cgosduim3h1,3z2r0dq0jlr276ylm9o31vmzjiwe2n,5efkeU79,2020-0188,2020-06-04,19:03:44,19:32:34,NA,incomplete,219,race,2,1,left,A_M_15.jpg,A_F_03.jpg,C_M_12.jpg,right,1007.9450000012293,false,high,NA,NA,NA,NA,NA,NA,NA,false
5efkeU79,3kqc8jmjhf51pencp85cgosduim3h1,3z2r0dq0jlr276ylm9o31vmzjiwe2n,5efkeU79,2020-0188,2020-06-04,19:03:44,19:32:34,NA,incomplete,220,gender,3,1,right,A_F_13.jpg,A_M_11.jpg,C_F_03.jpg,left,1169.729999997653,false,high,NA,NA,NA,NA,NA,NA,NA,false
5efkeU79,3kqc8jmjhf51pencp85cgosduim3h1,3z2r0dq0jlr276ylm9o31vmzjiwe2n,5efkeU79,2020-0188,2020-06-04,19:03:44,19:32:34,NA,incomplete,221,gender,3,1,left,C_M_06.jpg,A_M_12.jpg,C_F_05.jpg,left,1066.5799999989104,true,high,NA,NA,NA,NA,NA,NA,NA,false
5efkeU79,3kqc8jmjhf51pencp85cgosduim3h1,3z2r0dq0jlr276ylm9o31vmzjiwe2n,5efkeU79,2020-0188,2020-06-04,19:03:44,19:32:34,NA,incomplete,222,gender,3,1,left,C_M_14.jpg,A_M_04.jpg,C_F_11.jpg,none,0,false,high,NA,NA,NA,NA,NA,NA,NA,false
5efkeU79,3kqc8jmjhf51pencp85cgosduim3h1,3z2r0dq0jlr276ylm9o31vmzjiwe2n,5efkeU79,2020-0188,2020-06-04,19:03:44,19:32:34,NA,incomplete,223,gender,3,1,right,A_M_07.jpg,A_F_11.jpg,C_M_03.jpg,right,983.3550000002142,true,high,NA,NA,NA,NA,NA,NA,NA,false
5efkeU79,3kqc8jmjhf51pencp85cgosduim3h1,3z2r0dq0jlr276ylm9o31vmzjiwe2n,5efkeU79,2020-0188,2020-06-04,19:03:44,19:32:34,NA,incomplete,224,gender,3,1,left,C_F_06.jpg,A_F_03.jpg,C_M_10.jpg,left,912.2050000005402,true,high,NA,NA,NA,NA,NA,NA,NA,false
5efkeU79,3kqc8jmjhf51pencp85cgosduim3h1,3z2r0dq0jlr276ylm9o31vmzjiwe2n,5efkeU79,2020-0188,2020-06-04,19:03:44,19:32:34,NA,incomplete,225,gender,3,1,left,C_M_02.jpg,A_M_09.jpg,C_F_04.jpg,left,866.1549999997951,true,high,NA,NA,NA,NA,NA,NA,NA,false
5efkeU79,3kqc8jmjhf51pencp85cgosduim3h1,3z2r0dq0jlr276ylm9o31vmzjiwe2n,5efkeU79,2020-0188,2020-06-04,19:03:44,19:32:34,NA,incomplete,226,gender,3,1,left,A_F_15.jpg,C_F_08.jpg,A_M_13.jpg,left,1086.4849999996368,true,high,NA,NA,NA,NA,NA,NA,NA,false
5efkeU79,3kqc8jmjhf51pencp85cgosduim3h1,3z2r0dq0jlr276ylm9o31vmzjiwe2n,5efkeU79,2020-0188,2020-06-04,19:03:44,19:32:34,NA,incomplete,227,gender,3,1,right,A_F_15.jpg,A_M_09.jpg,C_F_12.jpg,right,964.6349999965169,true,high,NA,NA,NA,NA,NA,NA,NA,false
5efkeU79,3kqc8jmjhf51pencp85cgosduim3h1,3z2r0dq0jlr276ylm9o31vmzjiwe2n,5efkeU79,2020-0188,2020-06-04,19:03:44,19:32:34,NA,incomplete,228,gender,3,1,right,A_M_11.jpg,A_F_05.jpg,C_M_16.jpg,right,813.3699999998789,true,high,NA,NA,NA,NA,NA,NA,NA,false
5efkeU79,3kqc8jmjhf51pencp85cgosduim3h1,3z2r0dq0jlr276ylm9o31vmzjiwe2n,5efkeU79,2020-0188,2020-06-04,19:03:44,19:32:34,NA,incomplete,229,gender,3,1,left,A_M_05.jpg,C_M_10.jpg,A_F_15.jpg,left,855.3350000001956,true,high,NA,NA,NA,NA,NA,NA,NA,false
5efkeU79,3kqc8jmjhf51pencp85cgosduim3h1,3z2r0dq0jlr276ylm9o31vmzjiwe2n,5efkeU79,2020-0188,2020-06-04,19:03:44,19:32:34,NA,incomplete,230,gender,3,1,right,C_F_05.jpg,C_M_13.jpg,A_F_04.jpg,left,1172.3349999992643,false,high,NA,NA,NA,NA,NA,NA,NA,false
5efkeU79,3kqc8jmjhf51pencp85cgosduim3h1,3z2r0dq0jlr276ylm9o31vmzjiwe2n,5efkeU79,2020-0188,2020-06-04,19:03:44,19:32:34,NA,incomplete,231,gender,3,0,right,A_M_16.jpg,A_F_07.jpg,C_M_13.jpg,right,989.150000001071,true,high,NA,NA,NA,NA,NA,NA,NA,false
5efkeU79,3kqc8jmjhf51pencp85cgosduim3h1,3z2r0dq0jlr276ylm9o31vmzjiwe2n,5efkeU79,2020-0188,2020-06-04,19:03:44,19:32:34,NA,incomplete,232,gender,3,1,right,A_M_05.jpg,A_F_01.jpg,C_M_10.jpg,left,1073.8700000001118,false,high,NA,NA,NA,NA,NA,NA,NA,false
5efkeU79,3kqc8jmjhf51pencp85cgosduim3h1,3z2r0dq0jlr276ylm9o31vmzjiwe2n,5efkeU79,2020-0188,2020-06-04,19:03:44,19:32:34,NA,incomplete,233,gender,3,0,right,A_M_08.jpg,A_F_05.jpg,C_M_09.jpg,right,1100.8050000017975,true,high,NA,NA,NA,NA,NA,NA,NA,false
5efkeU79,3kqc8jmjhf51pencp85cgosduim3h1,3z2r0dq0jlr276ylm9o31vmzjiwe2n,5efkeU79,2020-0188,2020-06-04,19:03:44,19:32:34,NA,incomplete,234,gender,3,1,right,A_F_07.jpg,A_M_09.jpg,C_F_01.jpg,left,915.2749999994412,false,high,NA,NA,NA,NA,NA,NA,NA,false
5efkeU79,3kqc8jmjhf51pencp85cgosduim3h1,3z2r0dq0jlr276ylm9o31vmzjiwe2n,5efkeU79,2020-0188,2020-06-04,19:03:44,19:32:34,NA,incomplete,235,gender,3,1,left,C_F_01.jpg,A_F_09.jpg,C_M_04.jpg,left,968.6449999972247,true,high,NA,NA,NA,NA,NA,NA,NA,false
5efkeU79,3kqc8jmjhf51pencp85cgosduim3h1,3z2r0dq0jlr276ylm9o31vmzjiwe2n,5efkeU79,2020-0188,2020-06-04,19:03:44,19:32:34,NA,incomplete,236,gender,3,1,right,C_M_13.jpg,C_F_06.jpg,A_M_10.jpg,right,1645.984999999404,true,high,NA,NA,NA,NA,NA,NA,NA,false
5efkeU79,3kqc8jmjhf51pencp85cgosduim3h1,3z2r0dq0jlr276ylm9o31vmzjiwe2n,5efkeU79,2020-0188,2020-06-04,19:03:44,19:32:34,NA,incomplete,237,gender,3,1,right,C_F_13.jpg,C_M_12.jpg,A_F_05.jpg,right,923.2049999991432,true,high,NA,NA,NA,NA,NA,NA,NA,false
5efkeU79,3kqc8jmjhf51pencp85cgosduim3h1,3z2r0dq0jlr276ylm9o31vmzjiwe2n,5efkeU79,2020-0188,2020-06-04,19:03:44,19:32:34,NA,incomplete,238,gender,3,1,left,A_F_08.jpg,C_F_03.jpg,A_M_10.jpg,left,810.1400000012945,true,high,NA,NA,NA,NA,NA,NA,NA,false
5efkeU79,3kqc8jmjhf51pencp85cgosduim3h1,3z2r0dq0jlr276ylm9o31vmzjiwe2n,5efkeU79,2020-0188,2020-06-04,19:03:44,19:32:34,NA,incomplete,239,gender,3,1,right,A_M_02.jpg,A_F_15.jpg,C_M_04.jpg,right,926.9999999995343,true,high,NA,NA,NA,NA,NA,NA,NA,false
5efkeU79,3kqc8jmjhf51pencp85cgosduim3h1,3z2r0dq0jlr276ylm9o31vmzjiwe2n,5efkeU79,2020-0188,2020-06-04,19:03:44,19:32:34,NA,NA,instruction example,filling,NA,NA,NA,Green_Triangle_Chess_4.jpg,Blue_Star_Chess_2.jpg,Red_Circle_Dots_4.jpg,NA,NA,NA,NA,NA,NA,NA,NA,NA,NA,NA,undefined
5efkeU79,3kqc8jmjhf51pencp85cgosduim3h1,3z2r0dq0jlr276ylm9o31vmzjiwe2n,5efkeU79,2020-0188,2020-06-04,19:03:44,19:32:34,NA,NA,instruction example,filling,NA,NA,NA,Green_Plus_Stripes_2.jpg,Red_Triangle_Grid_2.jpg,Purple_Circle_Stripes_4.jpg,NA,NA,NA,NA,NA,NA,NA,NA,NA,NA,NA,undefined
5efkeU79,3kqc8jmjhf51pencp85cgosduim3h1,3z2r0dq0jlr276ylm9o31vmzjiwe2n,5efkeU79,2020-0188,2020-06-04,19:03:44,19:32:34,NA,NA,instruction example,filling,NA,NA,NA,C_F_12.jpg,C_M_16.jpg,A_F_10.jpg,NA,NA,NA,NA,NA,NA,NA,NA,NA,NA,NA,undefined
5efkeU79,3kqc8jmjhf51pencp85cgosduim3h1,3z2r0dq0jlr276ylm9o31vmzjiwe2n,5efkeU79,2020-0188,2020-06-04,19:03:44,19:32:34,NA,NA,instruction example,filling,NA,NA,NA,A_F_05.jpg,C_F_10.jpg,A_M_06.jpg,NA,NA,NA,NA,NA,NA,NA,NA,NA,NA,NA,undefined
5efkeU79,3kqc8jmjhf51pencp85cgosduim3h1,3z2r0dq0jlr276ylm9o31vmzjiwe2n,5efkeU79,2020-0188,2020-06-04,19:03:44,19:32:34,1711061.5049999978,1731287.3849999995,NA,NA,NA,NA,NA,NA,NA,NA,NA,NA,NA,NA,36,White/Caucasian,Male,white,no,yes,yes,undefined
