workerId,hitId,assignmentId,subject,studyid,exp_date,exp_start,exp_end,time_start,time_end,trial,type,sequence,reward_validity,answer,image_top,image_left,image_right,response,response_time,response_acc,volatility,practice
vsZDNvdk,31mcue39cnznpis152nuvogcfi93g2,3z3zlgnnsm7gprk9z0x8emg58wl3qu,vsZDNvdk,2020-0188,2020-06-04,12:36:07,12:55:11,NA,incomplete,0,number,0,1,left,Blue_Triangle_Stripes_3.jpg,Green_Plus_Grid_3.jpg,Red_Circle_Stripes_2.jpg,left,1781.3349999778438,true,NA,true
vsZDNvdk,31mcue39cnznpis152nuvogcfi93g2,3z3zlgnnsm7gprk9z0x8emg58wl3qu,vsZDNvdk,2020-0188,2020-06-04,12:36:07,12:55:11,NA,incomplete,1,number,0,1,right,Blue_Star_Stripes_1.jpg,Purple_Triangle_Stripes_4.jpg,Green_Circle_Grid_1.jpg,right,839.2900000035297,true,NA,true
vsZDNvdk,31mcue39cnznpis152nuvogcfi93g2,3z3zlgnnsm7gprk9z0x8emg58wl3qu,vsZDNvdk,2020-0188,2020-06-04,12:36:07,12:55:11,NA,incomplete,2,number,0,1,left,Blue_Circle_Chess_2.jpg,Purple_Star_Dots_2.jpg,Red_Triangle_Chess_4.jpg,left,946.4849999931175,true,NA,true
vsZDNvdk,31mcue39cnznpis152nuvogcfi93g2,3z3zlgnnsm7gprk9z0x8emg58wl3qu,vsZDNvdk,2020-0188,2020-06-04,12:36:07,12:55:11,NA,incomplete,3,number,0,0,right,Red_Circle_Dots_1.jpg,Blue_Plus_Dots_2.jpg,Purple_Triangle_Grid_1.jpg,right,951.0949999967124,true,NA,true
vsZDNvdk,31mcue39cnznpis152nuvogcfi93g2,3z3zlgnnsm7gprk9z0x8emg58wl3qu,vsZDNvdk,2020-0188,2020-06-04,12:36:07,12:55:11,NA,incomplete,4,number,0,0,right,Purple_Circle_Grid_1.jpg,Red_Star_Grid_3.jpg,Blue_Triangle_Chess_1.jpg,right,1141.5649999980815,true,NA,true
vsZDNvdk,31mcue39cnznpis152nuvogcfi93g2,3z3zlgnnsm7gprk9z0x8emg58wl3qu,vsZDNvdk,2020-0188,2020-06-04,12:36:07,12:55:11,NA,incomplete,5,number,0,1,right,Red_Triangle_Chess_4.jpg,Green_Plus_Chess_1.jpg,Purple_Star_Stripes_4.jpg,right,1081.770000018878,true,NA,true
vsZDNvdk,31mcue39cnznpis152nuvogcfi93g2,3z3zlgnnsm7gprk9z0x8emg58wl3qu,vsZDNvdk,2020-0188,2020-06-04,12:36:07,12:55:11,NA,incomplete,6,number,0,1,right,Red_Circle_Stripes_3.jpg,Purple_Plus_Stripes_1.jpg,Blue_Star_Dots_3.jpg,right,1045.7149999856483,true,NA,true
vsZDNvdk,31mcue39cnznpis152nuvogcfi93g2,3z3zlgnnsm7gprk9z0x8emg58wl3qu,vsZDNvdk,2020-0188,2020-06-04,12:36:07,12:55:11,NA,incomplete,7,number,0,1,right,Green_Star_Dots_4.jpg,Purple_Plus_Dots_2.jpg,Red_Circle_Grid_4.jpg,right,1120.874999993248,true,NA,true
vsZDNvdk,31mcue39cnznpis152nuvogcfi93g2,3z3zlgnnsm7gprk9z0x8emg58wl3qu,vsZDNvdk,2020-0188,2020-06-04,12:36:07,12:55:11,NA,incomplete,8,number,0,1,left,Red_Triangle_Stripes_2.jpg,Purple_Star_Grid_2.jpg,Green_Circle_Stripes_4.jpg,left,895.1149999920744,true,NA,true
vsZDNvdk,31mcue39cnznpis152nuvogcfi93g2,3z3zlgnnsm7gprk9z0x8emg58wl3qu,vsZDNvdk,2020-0188,2020-06-04,12:36:07,12:55:11,NA,incomplete,9,number,0,1,left,Green_Star_Dots_3.jpg,Red_Triangle_Stripes_3.jpg,Purple_Plus_Dots_1.jpg,left,775.0900000100955,true,NA,true
vsZDNvdk,31mcue39cnznpis152nuvogcfi93g2,3z3zlgnnsm7gprk9z0x8emg58wl3qu,vsZDNvdk,2020-0188,2020-06-04,12:36:07,12:55:11,NA,incomplete,10,number,0,1,right,Blue_Triangle_Grid_4.jpg,Green_Star_Grid_1.jpg,Purple_Circle_Dots_4.jpg,right,894.0749999892432,true,NA,true
vsZDNvdk,31mcue39cnznpis152nuvogcfi93g2,3z3zlgnnsm7gprk9z0x8emg58wl3qu,vsZDNvdk,2020-0188,2020-06-04,12:36:07,12:55:11,NA,incomplete,11,number,0,0,right,Blue_Circle_Stripes_2.jpg,Red_Plus_Stripes_4.jpg,Purple_Triangle_Chess_2.jpg,right,902.5599999877159,true,NA,true
vsZDNvdk,31mcue39cnznpis152nuvogcfi93g2,3z3zlgnnsm7gprk9z0x8emg58wl3qu,vsZDNvdk,2020-0188,2020-06-04,12:36:07,12:55:11,NA,incomplete,12,number,0,0,left,Green_Plus_Grid_1.jpg,Purple_Circle_Dots_1.jpg,Blue_Triangle_Grid_3.jpg,left,1042.8200000023935,true,NA,true
vsZDNvdk,31mcue39cnznpis152nuvogcfi93g2,3z3zlgnnsm7gprk9z0x8emg58wl3qu,vsZDNvdk,2020-0188,2020-06-04,12:36:07,12:55:11,NA,incomplete,13,number,0,1,right,Blue_Triangle_Dots_4.jpg,Purple_Star_Dots_3.jpg,Green_Plus_Chess_4.jpg,right,709.7900000226218,true,NA,true
vsZDNvdk,31mcue39cnznpis152nuvogcfi93g2,3z3zlgnnsm7gprk9z0x8emg58wl3qu,vsZDNvdk,2020-0188,2020-06-04,12:36:07,12:55:11,NA,incomplete,14,number,0,1,right,Purple_Circle_Grid_3.jpg,Red_Triangle_Grid_4.jpg,Blue_Star_Dots_3.jpg,right,746.9949999940582,true,NA,true
vsZDNvdk,31mcue39cnznpis152nuvogcfi93g2,3z3zlgnnsm7gprk9z0x8emg58wl3qu,vsZDNvdk,2020-0188,2020-06-04,12:36:07,12:55:11,NA,incomplete,15,number,0,1,right,Purple_Circle_Chess_2.jpg,Green_Star_Chess_3.jpg,Red_Triangle_Stripes_2.jpg,right,966.3000000000466,true,NA,true
vsZDNvdk,31mcue39cnznpis152nuvogcfi93g2,3z3zlgnnsm7gprk9z0x8emg58wl3qu,vsZDNvdk,2020-0188,2020-06-04,12:36:07,12:55:11,NA,incomplete,16,number,0,1,right,Green_Plus_Grid_2.jpg,Red_Triangle_Grid_4.jpg,Blue_Star_Chess_2.jpg,right,768.9749999844935,true,NA,true
vsZDNvdk,31mcue39cnznpis152nuvogcfi93g2,3z3zlgnnsm7gprk9z0x8emg58wl3qu,vsZDNvdk,2020-0188,2020-06-04,12:36:07,12:55:11,NA,incomplete,17,number,0,1,left,Blue_Star_Dots_3.jpg,Red_Triangle_Chess_3.jpg,Purple_Circle_Dots_2.jpg,left,701.5900000114925,true,NA,true
vsZDNvdk,31mcue39cnznpis152nuvogcfi93g2,3z3zlgnnsm7gprk9z0x8emg58wl3qu,vsZDNvdk,2020-0188,2020-06-04,12:36:07,12:55:11,NA,incomplete,18,number,0,0,right,Red_Triangle_Grid_4.jpg,Purple_Star_Grid_3.jpg,Green_Plus_Chess_4.jpg,right,846.3449999981094,true,NA,true
vsZDNvdk,31mcue39cnznpis152nuvogcfi93g2,3z3zlgnnsm7gprk9z0x8emg58wl3qu,vsZDNvdk,2020-0188,2020-06-04,12:36:07,12:55:11,NA,incomplete,19,number,0,1,right,Blue_Star_Chess_2.jpg,Green_Circle_Chess_1.jpg,Purple_Plus_Dots_2.jpg,right,791.0850000043865,true,NA,true
vsZDNvdk,31mcue39cnznpis152nuvogcfi93g2,3z3zlgnnsm7gprk9z0x8emg58wl3qu,vsZDNvdk,2020-0188,2020-06-04,12:36:07,12:55:11,NA,incomplete,20,filling,1,1,left,Red_Triangle_Grid_2.jpg,Purple_Plus_Grid_4.jpg,Blue_Star_Chess_2.jpg,left,1737.1950000233483,true,NA,true
vsZDNvdk,31mcue39cnznpis152nuvogcfi93g2,3z3zlgnnsm7gprk9z0x8emg58wl3qu,vsZDNvdk,2020-0188,2020-06-04,12:36:07,12:55:11,NA,incomplete,21,filling,1,1,right,Red_Plus_Chess_1.jpg,Green_Circle_Grid_1.jpg,Purple_Triangle_Chess_4.jpg,right,1164.6049999981187,true,NA,true
vsZDNvdk,31mcue39cnznpis152nuvogcfi93g2,3z3zlgnnsm7gprk9z0x8emg58wl3qu,vsZDNvdk,2020-0188,2020-06-04,12:36:07,12:55:11,NA,incomplete,22,filling,1,1,right,Red_Triangle_Stripes_2.jpg,Blue_Circle_Grid_2.jpg,Green_Star_Stripes_1.jpg,right,1067.2749999794178,true,NA,true
vsZDNvdk,31mcue39cnznpis152nuvogcfi93g2,3z3zlgnnsm7gprk9z0x8emg58wl3qu,vsZDNvdk,2020-0188,2020-06-04,12:36:07,12:55:11,NA,incomplete,23,filling,1,1,left,Blue_Star_Dots_3.jpg,Green_Circle_Dots_2.jpg,Purple_Triangle_Chess_3.jpg,left,1083.520000014687,true,NA,true
vsZDNvdk,31mcue39cnznpis152nuvogcfi93g2,3z3zlgnnsm7gprk9z0x8emg58wl3qu,vsZDNvdk,2020-0188,2020-06-04,12:36:07,12:55:11,NA,incomplete,24,filling,1,1,left,Red_Star_Chess_3.jpg,Purple_Circle_Chess_1.jpg,Blue_Plus_Grid_3.jpg,left,1451.2899999972433,true,NA,true
vsZDNvdk,31mcue39cnznpis152nuvogcfi93g2,3z3zlgnnsm7gprk9z0x8emg58wl3qu,vsZDNvdk,2020-0188,2020-06-04,12:36:07,12:55:11,NA,incomplete,25,filling,1,1,right,Red_Circle_Stripes_3.jpg,Green_Triangle_Dots_3.jpg,Purple_Star_Stripes_4.jpg,right,1093.220000009751,true,NA,true
vsZDNvdk,31mcue39cnznpis152nuvogcfi93g2,3z3zlgnnsm7gprk9z0x8emg58wl3qu,vsZDNvdk,2020-0188,2020-06-04,12:36:07,12:55:11,NA,incomplete,26,filling,1,1,right,Red_Star_Dots_3.jpg,Purple_Circle_Chess_3.jpg,Blue_Triangle_Dots_2.jpg,right,1194.5049999922048,true,NA,true
vsZDNvdk,31mcue39cnznpis152nuvogcfi93g2,3z3zlgnnsm7gprk9z0x8emg58wl3qu,vsZDNvdk,2020-0188,2020-06-04,12:36:07,12:55:11,NA,incomplete,27,filling,1,1,right,Red_Plus_Stripes_2.jpg,Purple_Triangle_Grid_2.jpg,Green_Circle_Stripes_4.jpg,right,1009.5150000124704,true,NA,true
vsZDNvdk,31mcue39cnznpis152nuvogcfi93g2,3z3zlgnnsm7gprk9z0x8emg58wl3qu,vsZDNvdk,2020-0188,2020-06-04,12:36:07,12:55:11,NA,incomplete,28,filling,1,1,right,Red_Star_Stripes_4.jpg,Green_Plus_Chess_4.jpg,Purple_Circle_Stripes_3.jpg,right,1505.284999992,true,NA,true
vsZDNvdk,31mcue39cnznpis152nuvogcfi93g2,3z3zlgnnsm7gprk9z0x8emg58wl3qu,vsZDNvdk,2020-0188,2020-06-04,12:36:07,12:55:11,NA,incomplete,29,filling,1,1,left,Blue_Plus_Chess_3.jpg,Red_Circle_Chess_4.jpg,Purple_Triangle_Stripes_3.jpg,left,1503.1049999815878,true,NA,true
vsZDNvdk,31mcue39cnznpis152nuvogcfi93g2,3z3zlgnnsm7gprk9z0x8emg58wl3qu,vsZDNvdk,2020-0188,2020-06-04,12:36:07,12:55:11,NA,incomplete,30,filling,1,1,right,Blue_Triangle_Dots_4.jpg,Purple_Circle_Grid_4.jpg,Green_Plus_Dots_3.jpg,right,1250.2600000007078,true,NA,true
vsZDNvdk,31mcue39cnznpis152nuvogcfi93g2,3z3zlgnnsm7gprk9z0x8emg58wl3qu,vsZDNvdk,2020-0188,2020-06-04,12:36:07,12:55:11,NA,incomplete,31,filling,1,1,left,Red_Triangle_Chess_3.jpg,Blue_Star_Chess_1.jpg,Green_Circle_Dots_3.jpg,left,923.1100000033621,true,NA,true
vsZDNvdk,31mcue39cnznpis152nuvogcfi93g2,3z3zlgnnsm7gprk9z0x8emg58wl3qu,vsZDNvdk,2020-0188,2020-06-04,12:36:07,12:55:11,NA,incomplete,32,filling,1,1,right,Purple_Circle_Stripes_2.jpg,Green_Star_Chess_2.jpg,Blue_Plus_Stripes_3.jpg,right,1038.9299999806099,true,NA,true
vsZDNvdk,31mcue39cnznpis152nuvogcfi93g2,3z3zlgnnsm7gprk9z0x8emg58wl3qu,vsZDNvdk,2020-0188,2020-06-04,12:36:07,12:55:11,NA,incomplete,33,filling,1,1,right,Green_Plus_Chess_2.jpg,Red_Star_Stripes_2.jpg,Blue_Triangle_Chess_1.jpg,right,1060.0699999777135,true,NA,true
vsZDNvdk,31mcue39cnznpis152nuvogcfi93g2,3z3zlgnnsm7gprk9z0x8emg58wl3qu,vsZDNvdk,2020-0188,2020-06-04,12:36:07,12:55:11,NA,incomplete,34,filling,1,1,left,Green_Triangle_Chess_3.jpg,Purple_Circle_Chess_1.jpg,Red_Star_Stripes_3.jpg,left,904.915000020992,true,NA,true
vsZDNvdk,31mcue39cnznpis152nuvogcfi93g2,3z3zlgnnsm7gprk9z0x8emg58wl3qu,vsZDNvdk,2020-0188,2020-06-04,12:36:07,12:55:11,NA,incomplete,35,filling,1,1,right,Purple_Plus_Dots_2.jpg,Green_Circle_Chess_2.jpg,Red_Triangle_Dots_3.jpg,right,1039.729999989504,true,NA,true
vsZDNvdk,31mcue39cnznpis152nuvogcfi93g2,3z3zlgnnsm7gprk9z0x8emg58wl3qu,vsZDNvdk,2020-0188,2020-06-04,12:36:07,12:55:11,NA,incomplete,36,filling,1,1,left,Green_Plus_Chess_2.jpg,Purple_Star_Chess_3.jpg,Blue_Triangle_Grid_2.jpg,left,993.7149999896064,true,NA,true
vsZDNvdk,31mcue39cnznpis152nuvogcfi93g2,3z3zlgnnsm7gprk9z0x8emg58wl3qu,vsZDNvdk,2020-0188,2020-06-04,12:36:07,12:55:11,NA,incomplete,37,filling,1,0,right,Red_Triangle_Stripes_2.jpg,Green_Plus_Dots_2.jpg,Blue_Star_Stripes_1.jpg,right,1231.595000019297,true,NA,true
vsZDNvdk,31mcue39cnznpis152nuvogcfi93g2,3z3zlgnnsm7gprk9z0x8emg58wl3qu,vsZDNvdk,2020-0188,2020-06-04,12:36:07,12:55:11,NA,incomplete,38,filling,1,0,left,Purple_Triangle_Grid_2.jpg,Green_Plus_Grid_3.jpg,Red_Circle_Chess_2.jpg,left,1133.8399999949615,true,NA,true
vsZDNvdk,31mcue39cnznpis152nuvogcfi93g2,3z3zlgnnsm7gprk9z0x8emg58wl3qu,vsZDNvdk,2020-0188,2020-06-04,12:36:07,12:55:11,NA,incomplete,39,filling,1,0,left,Blue_Triangle_Grid_2.jpg,Red_Star_Grid_1.jpg,Green_Plus_Stripes_2.jpg,left,1390.4750000219792,true,NA,true
vsZDNvdk,31mcue39cnznpis152nuvogcfi93g2,3z3zlgnnsm7gprk9z0x8emg58wl3qu,vsZDNvdk,2020-0188,2020-06-04,12:36:07,12:55:11,NA,incomplete,0,number,0,1,right,Purple_Star_Chess_2.jpg,Blue_Triangle_Chess_3.jpg,Red_Circle_Grid_2.jpg,right,1230.71499998332,true,high,false
vsZDNvdk,31mcue39cnznpis152nuvogcfi93g2,3z3zlgnnsm7gprk9z0x8emg58wl3qu,vsZDNvdk,2020-0188,2020-06-04,12:36:07,12:55:11,NA,incomplete,1,number,0,1,right,Purple_Circle_Dots_2.jpg,Blue_Triangle_Dots_4.jpg,Red_Plus_Grid_2.jpg,right,667.955000011716,true,high,false
vsZDNvdk,31mcue39cnznpis152nuvogcfi93g2,3z3zlgnnsm7gprk9z0x8emg58wl3qu,vsZDNvdk,2020-0188,2020-06-04,12:36:07,12:55:11,NA,incomplete,2,number,0,0,left,Green_Star_Dots_4.jpg,Purple_Plus_Chess_4.jpg,Blue_Circle_Dots_3.jpg,left,731.6899999859743,true,high,false
vsZDNvdk,31mcue39cnznpis152nuvogcfi93g2,3z3zlgnnsm7gprk9z0x8emg58wl3qu,vsZDNvdk,2020-0188,2020-06-04,12:36:07,12:55:11,NA,incomplete,3,number,0,1,left,Red_Plus_Dots_1.jpg,Green_Star_Chess_1.jpg,Purple_Triangle_Dots_4.jpg,right,906.184999999823,false,high,false
vsZDNvdk,31mcue39cnznpis152nuvogcfi93g2,3z3zlgnnsm7gprk9z0x8emg58wl3qu,vsZDNvdk,2020-0188,2020-06-04,12:36:07,12:55:11,NA,incomplete,4,number,0,1,right,Red_Star_Dots_3.jpg,Blue_Plus_Dots_4.jpg,Green_Triangle_Chess_3.jpg,left,1188.0750000127591,false,high,false
vsZDNvdk,31mcue39cnznpis152nuvogcfi93g2,3z3zlgnnsm7gprk9z0x8emg58wl3qu,vsZDNvdk,2020-0188,2020-06-04,12:36:07,12:55:11,NA,incomplete,5,number,0,1,left,Purple_Triangle_Dots_4.jpg,Blue_Circle_Chess_4.jpg,Green_Star_Dots_3.jpg,left,1053.6399999982677,true,high,false
vsZDNvdk,31mcue39cnznpis152nuvogcfi93g2,3z3zlgnnsm7gprk9z0x8emg58wl3qu,vsZDNvdk,2020-0188,2020-06-04,12:36:07,12:55:11,NA,incomplete,6,number,0,1,right,Purple_Circle_Chess_2.jpg,Green_Plus_Chess_1.jpg,Red_Star_Grid_2.jpg,right,1773.5799999791197,true,high,false
vsZDNvdk,31mcue39cnznpis152nuvogcfi93g2,3z3zlgnnsm7gprk9z0x8emg58wl3qu,vsZDNvdk,2020-0188,2020-06-04,12:36:07,12:55:11,NA,incomplete,7,number,0,1,left,Red_Triangle_Dots_4.jpg,Purple_Plus_Grid_4.jpg,Blue_Circle_Dots_3.jpg,right,1110.7499999925494,false,high,false
vsZDNvdk,31mcue39cnznpis152nuvogcfi93g2,3z3zlgnnsm7gprk9z0x8emg58wl3qu,vsZDNvdk,2020-0188,2020-06-04,12:36:07,12:55:11,NA,incomplete,8,number,0,1,left,Blue_Circle_Grid_1.jpg,Green_Triangle_Dots_1.jpg,Purple_Plus_Grid_2.jpg,left,1069.2200000048615,true,high,false
vsZDNvdk,31mcue39cnznpis152nuvogcfi93g2,3z3zlgnnsm7gprk9z0x8emg58wl3qu,vsZDNvdk,2020-0188,2020-06-04,12:36:07,12:55:11,NA,incomplete,9,number,0,1,left,Blue_Triangle_Stripes_1.jpg,Green_Circle_Grid_1.jpg,Purple_Plus_Stripes_4.jpg,left,1636.7150000005495,true,high,false
vsZDNvdk,31mcue39cnznpis152nuvogcfi93g2,3z3zlgnnsm7gprk9z0x8emg58wl3qu,vsZDNvdk,2020-0188,2020-06-04,12:36:07,12:55:11,NA,incomplete,10,filling,1,1,left,Blue_Plus_Chess_1.jpg,Green_Triangle_Chess_2.jpg,Red_Star_Stripes_1.jpg,right,1330.7400000048801,false,high,false
vsZDNvdk,31mcue39cnznpis152nuvogcfi93g2,3z3zlgnnsm7gprk9z0x8emg58wl3qu,vsZDNvdk,2020-0188,2020-06-04,12:36:07,12:55:11,NA,incomplete,11,filling,1,1,left,Purple_Circle_Dots_3.jpg,Red_Star_Dots_1.jpg,Blue_Triangle_Grid_3.jpg,left,1288.364999985788,true,high,false
vsZDNvdk,31mcue39cnznpis152nuvogcfi93g2,3z3zlgnnsm7gprk9z0x8emg58wl3qu,vsZDNvdk,2020-0188,2020-06-04,12:36:07,12:55:11,NA,incomplete,12,filling,1,1,left,Purple_Triangle_Dots_4.jpg,Red_Circle_Dots_2.jpg,Blue_Star_Chess_4.jpg,left,855.8999999950174,true,high,false
vsZDNvdk,31mcue39cnznpis152nuvogcfi93g2,3z3zlgnnsm7gprk9z0x8emg58wl3qu,vsZDNvdk,2020-0188,2020-06-04,12:36:07,12:55:11,NA,incomplete,13,filling,1,1,left,Green_Circle_Dots_1.jpg,Purple_Triangle_Dots_4.jpg,Blue_Plus_Stripes_1.jpg,left,936.0749999759719,true,high,false
vsZDNvdk,31mcue39cnznpis152nuvogcfi93g2,3z3zlgnnsm7gprk9z0x8emg58wl3qu,vsZDNvdk,2020-0188,2020-06-04,12:36:07,12:55:11,NA,incomplete,14,filling,1,1,left,Purple_Star_Dots_1.jpg,Green_Plus_Dots_4.jpg,Red_Circle_Chess_1.jpg,left,856.0050000087358,true,high,false
vsZDNvdk,31mcue39cnznpis152nuvogcfi93g2,3z3zlgnnsm7gprk9z0x8emg58wl3qu,vsZDNvdk,2020-0188,2020-06-04,12:36:07,12:55:11,NA,incomplete,15,filling,1,1,right,Blue_Circle_Dots_1.jpg,Green_Plus_Grid_1.jpg,Red_Star_Dots_4.jpg,right,1098.9700000209268,true,high,false
vsZDNvdk,31mcue39cnznpis152nuvogcfi93g2,3z3zlgnnsm7gprk9z0x8emg58wl3qu,vsZDNvdk,2020-0188,2020-06-04,12:36:07,12:55:11,NA,incomplete,16,filling,1,1,right,Red_Circle_Grid_4.jpg,Purple_Triangle_Chess_4.jpg,Blue_Star_Grid_2.jpg,right,1151.6600000031758,true,high,false
vsZDNvdk,31mcue39cnznpis152nuvogcfi93g2,3z3zlgnnsm7gprk9z0x8emg58wl3qu,vsZDNvdk,2020-0188,2020-06-04,12:36:07,12:55:11,NA,incomplete,17,filling,1,1,left,Purple_Circle_Stripes_3.jpg,Blue_Triangle_Stripes_2.jpg,Red_Plus_Chess_3.jpg,left,1189.5699999877252,true,high,false
vsZDNvdk,31mcue39cnznpis152nuvogcfi93g2,3z3zlgnnsm7gprk9z0x8emg58wl3qu,vsZDNvdk,2020-0188,2020-06-04,12:36:07,12:55:11,NA,incomplete,18,filling,1,1,right,Purple_Star_Grid_2.jpg,Blue_Plus_Chess_2.jpg,Green_Triangle_Grid_3.jpg,right,1015.9350000030827,true,high,false
vsZDNvdk,31mcue39cnznpis152nuvogcfi93g2,3z3zlgnnsm7gprk9z0x8emg58wl3qu,vsZDNvdk,2020-0188,2020-06-04,12:36:07,12:55:11,NA,incomplete,19,filling,1,0,left,Red_Circle_Chess_4.jpg,Blue_Plus_Chess_1.jpg,Green_Star_Dots_4.jpg,left,1052.110000018729,true,high,false
vsZDNvdk,31mcue39cnznpis152nuvogcfi93g2,3z3zlgnnsm7gprk9z0x8emg58wl3qu,vsZDNvdk,2020-0188,2020-06-04,12:36:07,12:55:11,NA,incomplete,20,number,0,1,right,Blue_Plus_Grid_2.jpg,Red_Triangle_Grid_3.jpg,Purple_Circle_Dots_2.jpg,right,912.5850000127684,true,high,false
vsZDNvdk,31mcue39cnznpis152nuvogcfi93g2,3z3zlgnnsm7gprk9z0x8emg58wl3qu,vsZDNvdk,2020-0188,2020-06-04,12:36:07,12:55:11,NA,incomplete,21,number,0,0,right,Green_Circle_Chess_2.jpg,Red_Triangle_Chess_3.jpg,Purple_Star_Stripes_2.jpg,left,963.240000011865,false,high,false
vsZDNvdk,31mcue39cnznpis152nuvogcfi93g2,3z3zlgnnsm7gprk9z0x8emg58wl3qu,vsZDNvdk,2020-0188,2020-06-04,12:36:07,12:55:11,NA,incomplete,22,number,0,1,right,Red_Star_Grid_1.jpg,Blue_Circle_Grid_2.jpg,Purple_Triangle_Dots_1.jpg,left,1061.859999987064,false,high,false
vsZDNvdk,31mcue39cnznpis152nuvogcfi93g2,3z3zlgnnsm7gprk9z0x8emg58wl3qu,vsZDNvdk,2020-0188,2020-06-04,12:36:07,12:55:11,NA,incomplete,23,number,0,1,left,Blue_Circle_Grid_3.jpg,Green_Plus_Stripes_3.jpg,Red_Triangle_Grid_1.jpg,right,1186.1550000030547,false,high,false
vsZDNvdk,31mcue39cnznpis152nuvogcfi93g2,3z3zlgnnsm7gprk9z0x8emg58wl3qu,vsZDNvdk,2020-0188,2020-06-04,12:36:07,12:55:11,NA,incomplete,24,number,0,1,right,Red_Triangle_Chess_2.jpg,Green_Star_Chess_3.jpg,Blue_Plus_Stripes_2.jpg,right,953.2849999959581,true,high,false
vsZDNvdk,31mcue39cnznpis152nuvogcfi93g2,3z3zlgnnsm7gprk9z0x8emg58wl3qu,vsZDNvdk,2020-0188,2020-06-04,12:36:07,12:55:11,NA,incomplete,25,number,0,1,left,Purple_Circle_Grid_2.jpg,Blue_Triangle_Stripes_2.jpg,Green_Star_Grid_3.jpg,left,1016.8850000191014,true,high,false
vsZDNvdk,31mcue39cnznpis152nuvogcfi93g2,3z3zlgnnsm7gprk9z0x8emg58wl3qu,vsZDNvdk,2020-0188,2020-06-04,12:36:07,12:55:11,NA,incomplete,26,number,0,0,left,Red_Star_Dots_1.jpg,Purple_Plus_Chess_1.jpg,Blue_Triangle_Dots_2.jpg,left,1257.5899999937974,true,high,false
vsZDNvdk,31mcue39cnznpis152nuvogcfi93g2,3z3zlgnnsm7gprk9z0x8emg58wl3qu,vsZDNvdk,2020-0188,2020-06-04,12:36:07,12:55:11,NA,incomplete,27,number,0,1,left,Blue_Triangle_Dots_3.jpg,Red_Star_Grid_3.jpg,Green_Circle_Dots_2.jpg,right,1216.5600000007544,false,high,false
vsZDNvdk,31mcue39cnznpis152nuvogcfi93g2,3z3zlgnnsm7gprk9z0x8emg58wl3qu,vsZDNvdk,2020-0188,2020-06-04,12:36:07,12:55:11,NA,incomplete,28,number,0,1,right,Red_Star_Grid_1.jpg,Purple_Circle_Grid_4.jpg,Blue_Triangle_Stripes_1.jpg,left,1323.9599999797065,false,high,false
vsZDNvdk,31mcue39cnznpis152nuvogcfi93g2,3z3zlgnnsm7gprk9z0x8emg58wl3qu,vsZDNvdk,2020-0188,2020-06-04,12:36:07,12:55:11,NA,incomplete,29,number,0,1,left,Red_Plus_Dots_4.jpg,Purple_Star_Grid_4.jpg,Blue_Triangle_Dots_3.jpg,left,1278.0999999959022,true,high,false
vsZDNvdk,31mcue39cnznpis152nuvogcfi93g2,3z3zlgnnsm7gprk9z0x8emg58wl3qu,vsZDNvdk,2020-0188,2020-06-04,12:36:07,12:55:11,NA,incomplete,30,filling,1,1,left,Purple_Triangle_Chess_2.jpg,Red_Circle_Chess_4.jpg,Green_Star_Stripes_2.jpg,left,1266.5449999913108,true,high,false
vsZDNvdk,31mcue39cnznpis152nuvogcfi93g2,3z3zlgnnsm7gprk9z0x8emg58wl3qu,vsZDNvdk,2020-0188,2020-06-04,12:36:07,12:55:11,NA,incomplete,31,filling,1,1,left,Green_Star_Stripes_1.jpg,Red_Plus_Stripes_3.jpg,Blue_Circle_Grid_1.jpg,left,1344.375000015134,true,high,false
vsZDNvdk,31mcue39cnznpis152nuvogcfi93g2,3z3zlgnnsm7gprk9z0x8emg58wl3qu,vsZDNvdk,2020-0188,2020-06-04,12:36:07,12:55:11,NA,incomplete,32,filling,1,1,left,Purple_Plus_Chess_4.jpg,Red_Triangle_Chess_2.jpg,Blue_Star_Stripes_4.jpg,left,1137.6349999918602,true,high,false
vsZDNvdk,31mcue39cnznpis152nuvogcfi93g2,3z3zlgnnsm7gprk9z0x8emg58wl3qu,vsZDNvdk,2020-0188,2020-06-04,12:36:07,12:55:11,NA,incomplete,33,filling,1,1,right,Red_Star_Dots_2.jpg,Purple_Circle_Grid_2.jpg,Green_Triangle_Dots_3.jpg,right,1628.9799999794923,true,high,false
vsZDNvdk,31mcue39cnznpis152nuvogcfi93g2,3z3zlgnnsm7gprk9z0x8emg58wl3qu,vsZDNvdk,2020-0188,2020-06-04,12:36:07,12:55:11,NA,incomplete,34,filling,1,1,right,Blue_Triangle_Grid_4.jpg,Purple_Star_Dots_4.jpg,Red_Circle_Grid_3.jpg,right,979.0749999810942,true,high,false
vsZDNvdk,31mcue39cnznpis152nuvogcfi93g2,3z3zlgnnsm7gprk9z0x8emg58wl3qu,vsZDNvdk,2020-0188,2020-06-04,12:36:07,12:55:11,NA,incomplete,35,filling,1,1,right,Blue_Circle_Grid_1.jpg,Green_Plus_Dots_1.jpg,Purple_Star_Grid_4.jpg,right,1066.7050000047311,true,high,false
vsZDNvdk,31mcue39cnznpis152nuvogcfi93g2,3z3zlgnnsm7gprk9z0x8emg58wl3qu,vsZDNvdk,2020-0188,2020-06-04,12:36:07,12:55:11,NA,incomplete,36,filling,1,0,right,Blue_Triangle_Dots_3.jpg,Red_Circle_Stripes_3.jpg,Purple_Star_Dots_4.jpg,right,1043.5050000087358,true,high,false
vsZDNvdk,31mcue39cnznpis152nuvogcfi93g2,3z3zlgnnsm7gprk9z0x8emg58wl3qu,vsZDNvdk,2020-0188,2020-06-04,12:36:07,12:55:11,NA,incomplete,37,filling,1,1,right,Green_Circle_Stripes_3.jpg,Purple_Triangle_Chess_3.jpg,Red_Star_Stripes_4.jpg,left,758.3750000048894,false,high,false
vsZDNvdk,31mcue39cnznpis152nuvogcfi93g2,3z3zlgnnsm7gprk9z0x8emg58wl3qu,vsZDNvdk,2020-0188,2020-06-04,12:36:07,12:55:11,NA,incomplete,38,filling,1,1,left,Green_Triangle_Stripes_1.jpg,Purple_Star_Stripes_3.jpg,Blue_Circle_Dots_1.jpg,left,1724.8499999986961,true,high,false
vsZDNvdk,31mcue39cnznpis152nuvogcfi93g2,3z3zlgnnsm7gprk9z0x8emg58wl3qu,vsZDNvdk,2020-0188,2020-06-04,12:36:07,12:55:11,NA,incomplete,39,filling,1,1,left,Green_Circle_Stripes_3.jpg,Red_Plus_Stripes_4.jpg,Blue_Star_Dots_3.jpg,left,963.129999989178,true,high,false
vsZDNvdk,31mcue39cnznpis152nuvogcfi93g2,3z3zlgnnsm7gprk9z0x8emg58wl3qu,vsZDNvdk,2020-0188,2020-06-04,12:36:07,12:55:11,NA,incomplete,40,number,0,1,right,Purple_Circle_Grid_1.jpg,Green_Triangle_Grid_2.jpg,Blue_Star_Dots_1.jpg,left,775.6850000005215,false,high,false
vsZDNvdk,31mcue39cnznpis152nuvogcfi93g2,3z3zlgnnsm7gprk9z0x8emg58wl3qu,vsZDNvdk,2020-0188,2020-06-04,12:36:07,12:55:11,NA,incomplete,41,number,0,1,right,Green_Triangle_Dots_2.jpg,Blue_Plus_Dots_3.jpg,Purple_Circle_Chess_2.jpg,right,766.9849999947473,true,high,false
vsZDNvdk,31mcue39cnznpis152nuvogcfi93g2,3z3zlgnnsm7gprk9z0x8emg58wl3qu,vsZDNvdk,2020-0188,2020-06-04,12:36:07,12:55:11,NA,incomplete,42,number,0,0,left,Red_Circle_Dots_3.jpg,Purple_Plus_Stripes_3.jpg,Green_Star_Dots_4.jpg,left,1230.6550000212155,true,high,false
vsZDNvdk,31mcue39cnznpis152nuvogcfi93g2,3z3zlgnnsm7gprk9z0x8emg58wl3qu,vsZDNvdk,2020-0188,2020-06-04,12:36:07,12:55:11,NA,incomplete,43,number,0,1,left,Purple_Plus_Dots_2.jpg,Green_Triangle_Chess_2.jpg,Blue_Star_Dots_4.jpg,right,1461.3549999776296,false,high,false
vsZDNvdk,31mcue39cnznpis152nuvogcfi93g2,3z3zlgnnsm7gprk9z0x8emg58wl3qu,vsZDNvdk,2020-0188,2020-06-04,12:36:07,12:55:11,NA,incomplete,44,number,0,1,left,Purple_Circle_Stripes_1.jpg,Blue_Triangle_Dots_1.jpg,Green_Plus_Stripes_3.jpg,right,967.6849999814294,false,high,false
vsZDNvdk,31mcue39cnznpis152nuvogcfi93g2,3z3zlgnnsm7gprk9z0x8emg58wl3qu,vsZDNvdk,2020-0188,2020-06-04,12:36:07,12:55:11,NA,incomplete,45,number,0,1,left,Blue_Plus_Grid_2.jpg,Red_Circle_Dots_2.jpg,Green_Triangle_Grid_3.jpg,left,700.6650000112131,true,high,false
vsZDNvdk,31mcue39cnznpis152nuvogcfi93g2,3z3zlgnnsm7gprk9z0x8emg58wl3qu,vsZDNvdk,2020-0188,2020-06-04,12:36:07,12:55:11,NA,incomplete,46,number,0,1,right,Purple_Triangle_Grid_3.jpg,Blue_Star_Grid_4.jpg,Green_Plus_Stripes_3.jpg,right,883.67000001017,true,high,false
vsZDNvdk,31mcue39cnznpis152nuvogcfi93g2,3z3zlgnnsm7gprk9z0x8emg58wl3qu,vsZDNvdk,2020-0188,2020-06-04,12:36:07,12:55:11,NA,incomplete,47,number,0,1,left,Blue_Circle_Grid_2.jpg,Green_Plus_Dots_2.jpg,Purple_Star_Grid_3.jpg,right,1042.9049999802373,false,high,false
vsZDNvdk,31mcue39cnznpis152nuvogcfi93g2,3z3zlgnnsm7gprk9z0x8emg58wl3qu,vsZDNvdk,2020-0188,2020-06-04,12:36:07,12:55:11,NA,incomplete,48,number,0,1,right,Blue_Plus_Grid_1.jpg,Green_Triangle_Grid_4.jpg,Purple_Star_Stripes_1.jpg,left,841.0100000037346,false,high,false
vsZDNvdk,31mcue39cnznpis152nuvogcfi93g2,3z3zlgnnsm7gprk9z0x8emg58wl3qu,vsZDNvdk,2020-0188,2020-06-04,12:36:07,12:55:11,NA,incomplete,49,number,0,1,left,Blue_Star_Stripes_4.jpg,Green_Plus_Dots_4.jpg,Red_Triangle_Stripes_1.jpg,right,1435.8899999933783,false,high,false
vsZDNvdk,31mcue39cnznpis152nuvogcfi93g2,3z3zlgnnsm7gprk9z0x8emg58wl3qu,vsZDNvdk,2020-0188,2020-06-04,12:36:07,12:55:11,NA,incomplete,50,filling,1,0,left,Blue_Star_Dots_2.jpg,Green_Triangle_Dots_4.jpg,Purple_Plus_Stripes_2.jpg,right,1295.1649999886286,false,high,false
vsZDNvdk,31mcue39cnznpis152nuvogcfi93g2,3z3zlgnnsm7gprk9z0x8emg58wl3qu,vsZDNvdk,2020-0188,2020-06-04,12:36:07,12:55:11,NA,incomplete,51,filling,1,1,left,Red_Plus_Grid_3.jpg,Blue_Triangle_Grid_2.jpg,Green_Circle_Dots_3.jpg,right,953.7950000085402,false,high,false
vsZDNvdk,31mcue39cnznpis152nuvogcfi93g2,3z3zlgnnsm7gprk9z0x8emg58wl3qu,vsZDNvdk,2020-0188,2020-06-04,12:36:07,12:55:11,NA,incomplete,52,filling,1,0,right,Blue_Circle_Stripes_1.jpg,Green_Triangle_Dots_1.jpg,Purple_Plus_Stripes_4.jpg,right,881.9849999854341,true,high,false
vsZDNvdk,31mcue39cnznpis152nuvogcfi93g2,3z3zlgnnsm7gprk9z0x8emg58wl3qu,vsZDNvdk,2020-0188,2020-06-04,12:36:07,12:55:11,NA,incomplete,53,filling,1,1,right,Blue_Triangle_Grid_1.jpg,Purple_Circle_Dots_1.jpg,Green_Star_Grid_3.jpg,right,1045.3699999779928,true,high,false
vsZDNvdk,31mcue39cnznpis152nuvogcfi93g2,3z3zlgnnsm7gprk9z0x8emg58wl3qu,vsZDNvdk,2020-0188,2020-06-04,12:36:07,12:55:11,NA,incomplete,54,filling,1,1,left,Purple_Triangle_Grid_1.jpg,Blue_Circle_Grid_2.jpg,Green_Plus_Stripes_1.jpg,left,1895.199999999022,true,high,false
vsZDNvdk,31mcue39cnznpis152nuvogcfi93g2,3z3zlgnnsm7gprk9z0x8emg58wl3qu,vsZDNvdk,2020-0188,2020-06-04,12:36:07,12:55:11,NA,incomplete,55,filling,1,1,left,Purple_Plus_Dots_2.jpg,Blue_Star_Dots_1.jpg,Red_Circle_Grid_2.jpg,left,921.1849999846891,true,high,false
vsZDNvdk,31mcue39cnznpis152nuvogcfi93g2,3z3zlgnnsm7gprk9z0x8emg58wl3qu,vsZDNvdk,2020-0188,2020-06-04,12:36:07,12:55:11,NA,incomplete,56,filling,1,1,right,Purple_Circle_Chess_1.jpg,Blue_Plus_Stripes_1.jpg,Red_Star_Chess_2.jpg,right,993.9350000058766,true,high,false
vsZDNvdk,31mcue39cnznpis152nuvogcfi93g2,3z3zlgnnsm7gprk9z0x8emg58wl3qu,vsZDNvdk,2020-0188,2020-06-04,12:36:07,12:55:11,NA,incomplete,57,filling,1,1,left,Blue_Triangle_Grid_2.jpg,Red_Circle_Grid_4.jpg,Green_Plus_Chess_2.jpg,left,1113.9899999834597,true,high,false
vsZDNvdk,31mcue39cnznpis152nuvogcfi93g2,3z3zlgnnsm7gprk9z0x8emg58wl3qu,vsZDNvdk,2020-0188,2020-06-04,12:36:07,12:55:11,NA,incomplete,58,filling,1,1,left,Red_Star_Chess_2.jpg,Purple_Circle_Chess_3.jpg,Blue_Triangle_Grid_2.jpg,left,1142.6199999987148,true,high,false
vsZDNvdk,31mcue39cnznpis152nuvogcfi93g2,3z3zlgnnsm7gprk9z0x8emg58wl3qu,vsZDNvdk,2020-0188,2020-06-04,12:36:07,12:55:11,NA,incomplete,59,filling,1,1,right,Red_Star_Stripes_1.jpg,Green_Plus_Chess_1.jpg,Purple_Triangle_Stripes_3.jpg,right,1327.0699999993667,true,high,false
vsZDNvdk,31mcue39cnznpis152nuvogcfi93g2,3z3zlgnnsm7gprk9z0x8emg58wl3qu,vsZDNvdk,2020-0188,2020-06-04,12:36:07,12:55:11,NA,incomplete,60,number,0,1,left,Purple_Triangle_Chess_2.jpg,Red_Circle_Grid_2.jpg,Blue_Plus_Chess_1.jpg,right,1058.629999984987,false,high,false
vsZDNvdk,31mcue39cnznpis152nuvogcfi93g2,3z3zlgnnsm7gprk9z0x8emg58wl3qu,vsZDNvdk,2020-0188,2020-06-04,12:36:07,12:55:11,NA,incomplete,61,number,0,1,right,Red_Star_Stripes_1.jpg,Blue_Triangle_Stripes_4.jpg,Green_Circle_Chess_1.jpg,right,744.3650000204798,true,high,false
vsZDNvdk,31mcue39cnznpis152nuvogcfi93g2,3z3zlgnnsm7gprk9z0x8emg58wl3qu,vsZDNvdk,2020-0188,2020-06-04,12:36:07,12:55:11,NA,incomplete,62,number,0,0,left,Purple_Triangle_Stripes_1.jpg,Red_Circle_Dots_1.jpg,Green_Plus_Stripes_4.jpg,left,693.1850000109989,true,high,false
vsZDNvdk,31mcue39cnznpis152nuvogcfi93g2,3z3zlgnnsm7gprk9z0x8emg58wl3qu,vsZDNvdk,2020-0188,2020-06-04,12:36:07,12:55:11,NA,incomplete,63,number,0,1,left,Green_Star_Dots_1.jpg,Blue_Plus_Chess_1.jpg,Red_Circle_Dots_2.jpg,right,775.5750000069384,false,high,false
vsZDNvdk,31mcue39cnznpis152nuvogcfi93g2,3z3zlgnnsm7gprk9z0x8emg58wl3qu,vsZDNvdk,2020-0188,2020-06-04,12:36:07,12:55:11,NA,incomplete,64,number,0,1,left,Green_Triangle_Dots_3.jpg,Purple_Plus_Stripes_3.jpg,Blue_Star_Dots_1.jpg,right,968.9699999871664,false,high,false
vsZDNvdk,31mcue39cnznpis152nuvogcfi93g2,3z3zlgnnsm7gprk9z0x8emg58wl3qu,vsZDNvdk,2020-0188,2020-06-04,12:36:07,12:55:11,NA,incomplete,65,number,0,1,right,Red_Circle_Dots_1.jpg,Blue_Plus_Dots_4.jpg,Purple_Triangle_Stripes_1.jpg,right,953.0300000042189,true,high,false
vsZDNvdk,31mcue39cnznpis152nuvogcfi93g2,3z3zlgnnsm7gprk9z0x8emg58wl3qu,vsZDNvdk,2020-0188,2020-06-04,12:36:07,12:55:11,NA,incomplete,66,number,0,1,right,Blue_Plus_Grid_3.jpg,Green_Triangle_Grid_1.jpg,Purple_Circle_Dots_3.jpg,right,926.3450000144076,true,high,false
vsZDNvdk,31mcue39cnznpis152nuvogcfi93g2,3z3zlgnnsm7gprk9z0x8emg58wl3qu,vsZDNvdk,2020-0188,2020-06-04,12:36:07,12:55:11,NA,incomplete,67,number,0,1,left,Green_Triangle_Grid_2.jpg,Blue_Plus_Chess_2.jpg,Purple_Star_Grid_4.jpg,left,855.6549999921117,true,high,false
vsZDNvdk,31mcue39cnznpis152nuvogcfi93g2,3z3zlgnnsm7gprk9z0x8emg58wl3qu,vsZDNvdk,2020-0188,2020-06-04,12:36:07,12:55:11,NA,incomplete,68,number,0,1,left,Green_Triangle_Grid_2.jpg,Red_Plus_Dots_2.jpg,Blue_Star_Grid_4.jpg,left,714.2149999854155,true,high,false
vsZDNvdk,31mcue39cnznpis152nuvogcfi93g2,3z3zlgnnsm7gprk9z0x8emg58wl3qu,vsZDNvdk,2020-0188,2020-06-04,12:36:07,12:55:11,NA,incomplete,69,number,0,1,left,Blue_Circle_Stripes_4.jpg,Green_Plus_Dots_4.jpg,Purple_Triangle_Stripes_3.jpg,left,854.5499999891035,true,high,false
vsZDNvdk,31mcue39cnznpis152nuvogcfi93g2,3z3zlgnnsm7gprk9z0x8emg58wl3qu,vsZDNvdk,2020-0188,2020-06-04,12:36:07,12:55:11,NA,incomplete,70,filling,1,0,right,Green_Star_Stripes_1.jpg,Blue_Plus_Dots_1.jpg,Purple_Circle_Stripes_3.jpg,left,740.849999972852,false,high,false
vsZDNvdk,31mcue39cnznpis152nuvogcfi93g2,3z3zlgnnsm7gprk9z0x8emg58wl3qu,vsZDNvdk,2020-0188,2020-06-04,12:36:07,12:55:11,NA,incomplete,71,filling,1,1,right,Blue_Star_Chess_2.jpg,Red_Circle_Grid_2.jpg,Green_Plus_Chess_1.jpg,left,855.3850000025705,false,high,false
vsZDNvdk,31mcue39cnznpis152nuvogcfi93g2,3z3zlgnnsm7gprk9z0x8emg58wl3qu,vsZDNvdk,2020-0188,2020-06-04,12:36:07,12:55:11,NA,incomplete,72,filling,1,1,left,Green_Plus_Dots_3.jpg,Red_Star_Dots_1.jpg,Purple_Triangle_Chess_3.jpg,right,973.1200000096578,false,high,false
vsZDNvdk,31mcue39cnznpis152nuvogcfi93g2,3z3zlgnnsm7gprk9z0x8emg58wl3qu,vsZDNvdk,2020-0188,2020-06-04,12:36:07,12:55:11,NA,incomplete,73,filling,1,1,right,Green_Star_Grid_2.jpg,Purple_Plus_Chess_2.jpg,Red_Circle_Grid_4.jpg,right,1430.6150000193156,true,high,false
vsZDNvdk,31mcue39cnznpis152nuvogcfi93g2,3z3zlgnnsm7gprk9z0x8emg58wl3qu,vsZDNvdk,2020-0188,2020-06-04,12:36:07,12:55:11,NA,incomplete,74,filling,1,0,right,Green_Plus_Grid_3.jpg,Purple_Star_Dots_3.jpg,Red_Triangle_Grid_1.jpg,right,1347.36499999417,true,high,false
vsZDNvdk,31mcue39cnznpis152nuvogcfi93g2,3z3zlgnnsm7gprk9z0x8emg58wl3qu,vsZDNvdk,2020-0188,2020-06-04,12:36:07,12:55:11,NA,incomplete,75,filling,1,1,right,Blue_Plus_Stripes_4.jpg,Green_Circle_Dots_4.jpg,Purple_Star_Stripes_3.jpg,left,837.7700000128243,false,high,false
vsZDNvdk,31mcue39cnznpis152nuvogcfi93g2,3z3zlgnnsm7gprk9z0x8emg58wl3qu,vsZDNvdk,2020-0188,2020-06-04,12:36:07,12:55:11,NA,incomplete,76,filling,1,1,left,Blue_Star_Chess_4.jpg,Green_Circle_Chess_1.jpg,Red_Triangle_Dots_4.jpg,left,1381.5699999977369,true,high,false
vsZDNvdk,31mcue39cnznpis152nuvogcfi93g2,3z3zlgnnsm7gprk9z0x8emg58wl3qu,vsZDNvdk,2020-0188,2020-06-04,12:36:07,12:55:11,NA,incomplete,77,filling,1,1,right,Purple_Circle_Chess_4.jpg,Red_Plus_Dots_4.jpg,Blue_Triangle_Chess_1.jpg,right,1294.2800000018906,true,high,false
vsZDNvdk,31mcue39cnznpis152nuvogcfi93g2,3z3zlgnnsm7gprk9z0x8emg58wl3qu,vsZDNvdk,2020-0188,2020-06-04,12:36:07,12:55:11,NA,incomplete,78,filling,1,1,left,Blue_Triangle_Dots_4.jpg,Green_Star_Dots_2.jpg,Red_Plus_Grid_4.jpg,left,1446.2099999946076,true,high,false
vsZDNvdk,31mcue39cnznpis152nuvogcfi93g2,3z3zlgnnsm7gprk9z0x8emg58wl3qu,vsZDNvdk,2020-0188,2020-06-04,12:36:07,12:55:11,NA,incomplete,79,filling,1,1,left,Red_Circle_Stripes_4.jpg,Blue_Star_Stripes_1.jpg,Purple_Plus_Dots_4.jpg,left,945.7550000224728,true,high,false
vsZDNvdk,31mcue39cnznpis152nuvogcfi93g2,3z3zlgnnsm7gprk9z0x8emg58wl3qu,vsZDNvdk,2020-0188,2020-06-04,12:36:07,12:55:11,NA,incomplete,80,number,0,1,right,Purple_Star_Stripes_1.jpg,Blue_Plus_Stripes_3.jpg,Green_Circle_Grid_1.jpg,left,1118.255000008503,false,high,false
vsZDNvdk,31mcue39cnznpis152nuvogcfi93g2,3z3zlgnnsm7gprk9z0x8emg58wl3qu,vsZDNvdk,2020-0188,2020-06-04,12:36:07,12:55:11,NA,incomplete,81,number,0,0,left,Purple_Star_Dots_2.jpg,Red_Circle_Chess_2.jpg,Blue_Plus_Dots_4.jpg,left,1054.680000001099,true,high,false
vsZDNvdk,31mcue39cnznpis152nuvogcfi93g2,3z3zlgnnsm7gprk9z0x8emg58wl3qu,vsZDNvdk,2020-0188,2020-06-04,12:36:07,12:55:11,NA,incomplete,82,number,0,0,right,Red_Circle_Chess_2.jpg,Purple_Plus_Chess_3.jpg,Green_Star_Dots_2.jpg,left,1491.4649999991525,false,high,false
vsZDNvdk,31mcue39cnznpis152nuvogcfi93g2,3z3zlgnnsm7gprk9z0x8emg58wl3qu,vsZDNvdk,2020-0188,2020-06-04,12:36:07,12:55:11,NA,incomplete,83,number,0,1,left,Red_Circle_Dots_2.jpg,Purple_Plus_Stripes_2.jpg,Blue_Triangle_Dots_3.jpg,right,1423.2049999991432,false,high,false
vsZDNvdk,31mcue39cnznpis152nuvogcfi93g2,3z3zlgnnsm7gprk9z0x8emg58wl3qu,vsZDNvdk,2020-0188,2020-06-04,12:36:07,12:55:11,NA,incomplete,84,number,0,1,left,Purple_Triangle_Grid_1.jpg,Green_Plus_Chess_1.jpg,Red_Circle_Grid_2.jpg,right,949.3599999987055,false,high,false
vsZDNvdk,31mcue39cnznpis152nuvogcfi93g2,3z3zlgnnsm7gprk9z0x8emg58wl3qu,vsZDNvdk,2020-0188,2020-06-04,12:36:07,12:55:11,NA,incomplete,85,number,0,0,right,Purple_Plus_Dots_4.jpg,Green_Circle_Dots_1.jpg,Red_Star_Chess_4.jpg,right,895.1449999876786,true,high,false
vsZDNvdk,31mcue39cnznpis152nuvogcfi93g2,3z3zlgnnsm7gprk9z0x8emg58wl3qu,vsZDNvdk,2020-0188,2020-06-04,12:36:07,12:55:11,NA,incomplete,86,number,0,1,left,Purple_Plus_Dots_2.jpg,Blue_Triangle_Grid_2.jpg,Red_Star_Dots_4.jpg,right,1489.065000001574,false,high,false
vsZDNvdk,31mcue39cnznpis152nuvogcfi93g2,3z3zlgnnsm7gprk9z0x8emg58wl3qu,vsZDNvdk,2020-0188,2020-06-04,12:36:07,12:55:11,NA,incomplete,87,number,0,1,left,Green_Triangle_Stripes_3.jpg,Blue_Star_Chess_3.jpg,Red_Circle_Stripes_2.jpg,none,0,false,high,false
vsZDNvdk,31mcue39cnznpis152nuvogcfi93g2,3z3zlgnnsm7gprk9z0x8emg58wl3qu,vsZDNvdk,2020-0188,2020-06-04,12:36:07,12:55:11,NA,incomplete,88,number,0,0,right,Green_Plus_Dots_2.jpg,Red_Star_Dots_4.jpg,Blue_Triangle_Grid_2.jpg,left,1021.0099999967497,false,high,false
vsZDNvdk,31mcue39cnznpis152nuvogcfi93g2,3z3zlgnnsm7gprk9z0x8emg58wl3qu,vsZDNvdk,2020-0188,2020-06-04,12:36:07,12:55:11,NA,incomplete,89,number,0,1,right,Purple_Circle_Chess_3.jpg,Green_Star_Chess_1.jpg,Red_Triangle_Grid_3.jpg,left,1212.2350000136066,false,high,false
vsZDNvdk,31mcue39cnznpis152nuvogcfi93g2,3z3zlgnnsm7gprk9z0x8emg58wl3qu,vsZDNvdk,2020-0188,2020-06-04,12:36:07,12:55:11,NA,incomplete,90,filling,1,1,right,Red_Triangle_Dots_4.jpg,Purple_Circle_Stripes_4.jpg,Green_Star_Dots_2.jpg,right,1199.5699999970384,true,high,false
vsZDNvdk,31mcue39cnznpis152nuvogcfi93g2,3z3zlgnnsm7gprk9z0x8emg58wl3qu,vsZDNvdk,2020-0188,2020-06-04,12:36:07,12:55:11,NA,incomplete,91,filling,1,1,right,Purple_Circle_Dots_4.jpg,Blue_Triangle_Chess_4.jpg,Red_Plus_Dots_1.jpg,right,1081.0050000145566,true,high,false
vsZDNvdk,31mcue39cnznpis152nuvogcfi93g2,3z3zlgnnsm7gprk9z0x8emg58wl3qu,vsZDNvdk,2020-0188,2020-06-04,12:36:07,12:55:11,NA,incomplete,92,filling,1,1,right,Purple_Circle_Dots_1.jpg,Blue_Star_Stripes_1.jpg,Green_Plus_Dots_2.jpg,right,1088.5899999993853,true,high,false
vsZDNvdk,31mcue39cnznpis152nuvogcfi93g2,3z3zlgnnsm7gprk9z0x8emg58wl3qu,vsZDNvdk,2020-0188,2020-06-04,12:36:07,12:55:11,NA,incomplete,93,filling,1,1,right,Blue_Circle_Stripes_1.jpg,Red_Plus_Grid_1.jpg,Purple_Star_Stripes_3.jpg,right,994.5400000142399,true,high,false
vsZDNvdk,31mcue39cnznpis152nuvogcfi93g2,3z3zlgnnsm7gprk9z0x8emg58wl3qu,vsZDNvdk,2020-0188,2020-06-04,12:36:07,12:55:11,NA,incomplete,94,filling,1,1,left,Blue_Plus_Grid_1.jpg,Green_Circle_Grid_2.jpg,Red_Triangle_Chess_1.jpg,left,998.0349999968894,true,high,false
vsZDNvdk,31mcue39cnznpis152nuvogcfi93g2,3z3zlgnnsm7gprk9z0x8emg58wl3qu,vsZDNvdk,2020-0188,2020-06-04,12:36:07,12:55:11,NA,incomplete,95,filling,1,0,right,Blue_Star_Chess_3.jpg,Green_Triangle_Dots_3.jpg,Purple_Plus_Chess_4.jpg,right,1054.2049999930896,true,high,false
vsZDNvdk,31mcue39cnznpis152nuvogcfi93g2,3z3zlgnnsm7gprk9z0x8emg58wl3qu,vsZDNvdk,2020-0188,2020-06-04,12:36:07,12:55:11,NA,incomplete,96,filling,1,1,right,Purple_Star_Grid_1.jpg,Blue_Plus_Stripes_1.jpg,Green_Triangle_Grid_3.jpg,left,635.8949999848846,false,high,false
vsZDNvdk,31mcue39cnznpis152nuvogcfi93g2,3z3zlgnnsm7gprk9z0x8emg58wl3qu,vsZDNvdk,2020-0188,2020-06-04,12:36:07,12:55:11,NA,incomplete,97,filling,1,0,right,Purple_Star_Stripes_4.jpg,Red_Circle_Dots_4.jpg,Blue_Triangle_Stripes_1.jpg,right,1123.3899999933783,true,high,false
vsZDNvdk,31mcue39cnznpis152nuvogcfi93g2,3z3zlgnnsm7gprk9z0x8emg58wl3qu,vsZDNvdk,2020-0188,2020-06-04,12:36:07,12:55:11,NA,incomplete,98,filling,1,1,right,Purple_Triangle_Stripes_4.jpg,Blue_Star_Grid_4.jpg,Green_Circle_Stripes_2.jpg,right,816.9300000008661,true,high,false
vsZDNvdk,31mcue39cnznpis152nuvogcfi93g2,3z3zlgnnsm7gprk9z0x8emg58wl3qu,vsZDNvdk,2020-0188,2020-06-04,12:36:07,12:55:11,NA,incomplete,99,filling,1,1,left,Purple_Star_Stripes_4.jpg,Red_Plus_Stripes_2.jpg,Green_Triangle_Grid_4.jpg,left,1127.310000010766,true,high,false
vsZDNvdk,31mcue39cnznpis152nuvogcfi93g2,3z3zlgnnsm7gprk9z0x8emg58wl3qu,vsZDNvdk,2020-0188,2020-06-04,12:36:07,12:55:11,NA,incomplete,100,number,0,1,right,Green_Star_Stripes_3.jpg,Purple_Triangle_Stripes_2.jpg,Blue_Plus_Grid_3.jpg,left,1063.899999979185,false,high,false
vsZDNvdk,31mcue39cnznpis152nuvogcfi93g2,3z3zlgnnsm7gprk9z0x8emg58wl3qu,vsZDNvdk,2020-0188,2020-06-04,12:36:07,12:55:11,NA,incomplete,101,number,0,0,left,Green_Plus_Dots_1.jpg,Red_Star_Grid_1.jpg,Blue_Triangle_Dots_2.jpg,right,1091.9799999974202,false,high,false
vsZDNvdk,31mcue39cnznpis152nuvogcfi93g2,3z3zlgnnsm7gprk9z0x8emg58wl3qu,vsZDNvdk,2020-0188,2020-06-04,12:36:07,12:55:11,NA,incomplete,102,number,0,1,left,Blue_Triangle_Grid_2.jpg,Green_Circle_Chess_2.jpg,Purple_Plus_Grid_4.jpg,right,1736.2500000162981,false,high,false
vsZDNvdk,31mcue39cnznpis152nuvogcfi93g2,3z3zlgnnsm7gprk9z0x8emg58wl3qu,vsZDNvdk,2020-0188,2020-06-04,12:36:07,12:55:11,NA,incomplete,103,number,0,1,left,Purple_Star_Grid_2.jpg,Blue_Triangle_Stripes_2.jpg,Green_Plus_Grid_1.jpg,left,1063.3850000158418,true,high,false
vsZDNvdk,31mcue39cnznpis152nuvogcfi93g2,3z3zlgnnsm7gprk9z0x8emg58wl3qu,vsZDNvdk,2020-0188,2020-06-04,12:36:07,12:55:11,NA,incomplete,104,number,0,0,left,Red_Triangle_Stripes_2.jpg,Green_Circle_Dots_2.jpg,Purple_Plus_Stripes_4.jpg,left,650.5849999957718,true,high,false
vsZDNvdk,31mcue39cnznpis152nuvogcfi93g2,3z3zlgnnsm7gprk9z0x8emg58wl3qu,vsZDNvdk,2020-0188,2020-06-04,12:36:07,12:55:11,NA,incomplete,105,number,0,1,right,Purple_Plus_Grid_1.jpg,Red_Star_Grid_3.jpg,Blue_Circle_Stripes_1.jpg,left,991.9300000183284,false,high,false
vsZDNvdk,31mcue39cnznpis152nuvogcfi93g2,3z3zlgnnsm7gprk9z0x8emg58wl3qu,vsZDNvdk,2020-0188,2020-06-04,12:36:07,12:55:11,NA,incomplete,106,number,0,1,right,Green_Plus_Stripes_2.jpg,Red_Star_Stripes_4.jpg,Purple_Triangle_Dots_2.jpg,right,1154.7449999779928,true,high,false
vsZDNvdk,31mcue39cnznpis152nuvogcfi93g2,3z3zlgnnsm7gprk9z0x8emg58wl3qu,vsZDNvdk,2020-0188,2020-06-04,12:36:07,12:55:11,NA,incomplete,107,number,0,1,left,Blue_Plus_Grid_3.jpg,Green_Triangle_Stripes_3.jpg,Red_Star_Grid_4.jpg,left,1141.5949999936856,true,high,false
vsZDNvdk,31mcue39cnznpis152nuvogcfi93g2,3z3zlgnnsm7gprk9z0x8emg58wl3qu,vsZDNvdk,2020-0188,2020-06-04,12:36:07,12:55:11,NA,incomplete,108,number,0,0,right,Green_Star_Stripes_1.jpg,Red_Triangle_Stripes_4.jpg,Purple_Circle_Dots_1.jpg,right,807.7800000028219,true,high,false
vsZDNvdk,31mcue39cnznpis152nuvogcfi93g2,3z3zlgnnsm7gprk9z0x8emg58wl3qu,vsZDNvdk,2020-0188,2020-06-04,12:36:07,12:55:11,NA,incomplete,109,number,0,0,left,Purple_Triangle_Stripes_2.jpg,Red_Circle_Grid_2.jpg,Blue_Plus_Stripes_4.jpg,right,980.4149999981746,false,high,false
vsZDNvdk,31mcue39cnznpis152nuvogcfi93g2,3z3zlgnnsm7gprk9z0x8emg58wl3qu,vsZDNvdk,2020-0188,2020-06-04,12:36:07,12:55:11,NA,incomplete,110,filling,1,0,right,Purple_Circle_Stripes_3.jpg,Blue_Star_Chess_3.jpg,Green_Triangle_Stripes_1.jpg,right,1035.7099999964703,true,high,false
vsZDNvdk,31mcue39cnznpis152nuvogcfi93g2,3z3zlgnnsm7gprk9z0x8emg58wl3qu,vsZDNvdk,2020-0188,2020-06-04,12:36:07,12:55:11,NA,incomplete,111,filling,1,1,right,Red_Triangle_Chess_2.jpg,Blue_Circle_Dots_2.jpg,Purple_Plus_Chess_1.jpg,right,823.019999981625,true,high,false
vsZDNvdk,31mcue39cnznpis152nuvogcfi93g2,3z3zlgnnsm7gprk9z0x8emg58wl3qu,vsZDNvdk,2020-0188,2020-06-04,12:36:07,12:55:11,NA,incomplete,112,filling,1,1,right,Red_Plus_Stripes_3.jpg,Purple_Circle_Dots_3.jpg,Blue_Star_Stripes_1.jpg,right,1007.8449999855366,true,high,false
vsZDNvdk,31mcue39cnznpis152nuvogcfi93g2,3z3zlgnnsm7gprk9z0x8emg58wl3qu,vsZDNvdk,2020-0188,2020-06-04,12:36:07,12:55:11,NA,incomplete,113,filling,1,1,right,Green_Star_Stripes_2.jpg,Purple_Circle_Grid_2.jpg,Red_Plus_Stripes_4.jpg,right,961.4200000069104,true,high,false
vsZDNvdk,31mcue39cnznpis152nuvogcfi93g2,3z3zlgnnsm7gprk9z0x8emg58wl3qu,vsZDNvdk,2020-0188,2020-06-04,12:36:07,12:55:11,NA,incomplete,114,filling,1,1,right,Green_Triangle_Chess_1.jpg,Red_Star_Stripes_1.jpg,Blue_Plus_Chess_2.jpg,right,777.555000007851,true,high,false
vsZDNvdk,31mcue39cnznpis152nuvogcfi93g2,3z3zlgnnsm7gprk9z0x8emg58wl3qu,vsZDNvdk,2020-0188,2020-06-04,12:36:07,12:55:11,NA,incomplete,115,filling,1,1,left,Purple_Star_Grid_3.jpg,Green_Plus_Grid_1.jpg,Red_Triangle_Chess_3.jpg,left,925.6650000170339,true,high,false
vsZDNvdk,31mcue39cnznpis152nuvogcfi93g2,3z3zlgnnsm7gprk9z0x8emg58wl3qu,vsZDNvdk,2020-0188,2020-06-04,12:36:07,12:55:11,NA,incomplete,116,filling,1,1,left,Purple_Plus_Grid_2.jpg,Green_Triangle_Grid_3.jpg,Red_Star_Stripes_2.jpg,left,947.0500000170432,true,high,false
vsZDNvdk,31mcue39cnznpis152nuvogcfi93g2,3z3zlgnnsm7gprk9z0x8emg58wl3qu,vsZDNvdk,2020-0188,2020-06-04,12:36:07,12:55:11,NA,incomplete,117,filling,1,1,left,Purple_Plus_Grid_2.jpg,Red_Triangle_Grid_3.jpg,Blue_Star_Stripes_2.jpg,left,783.5049999994226,true,high,false
vsZDNvdk,31mcue39cnznpis152nuvogcfi93g2,3z3zlgnnsm7gprk9z0x8emg58wl3qu,vsZDNvdk,2020-0188,2020-06-04,12:36:07,12:55:11,NA,incomplete,118,filling,1,0,left,Purple_Circle_Chess_1.jpg,Green_Plus_Chess_2.jpg,Red_Star_Dots_1.jpg,left,781.9500000041444,true,high,false
vsZDNvdk,31mcue39cnznpis152nuvogcfi93g2,3z3zlgnnsm7gprk9z0x8emg58wl3qu,vsZDNvdk,2020-0188,2020-06-04,12:36:07,12:55:11,NA,incomplete,119,filling,1,0,left,Blue_Triangle_Stripes_3.jpg,Red_Star_Stripes_1.jpg,Purple_Plus_Chess_3.jpg,right,653.1400000094436,false,high,false
vsZDNvdk,31mcue39cnznpis152nuvogcfi93g2,3z3zlgnnsm7gprk9z0x8emg58wl3qu,vsZDNvdk,2020-0188,2020-06-04,12:36:07,12:55:11,NA,incomplete,120,gender,2,1,right,A_M_03.jpg,A_F_04.jpg,C_M_01.jpg,NA,NA,NA,high,false
vsZDNvdk,31mcue39cnznpis152nuvogcfi93g2,3z3zlgnnsm7gprk9z0x8emg58wl3qu,vsZDNvdk,2020-0188,2020-06-04,12:36:07,12:55:11,NA,incomplete,121,gender,2,1,left,C_F_15.jpg,A_F_10.jpg,C_M_13.jpg,right,978.4949999884702,false,high,false
vsZDNvdk,31mcue39cnznpis152nuvogcfi93g2,3z3zlgnnsm7gprk9z0x8emg58wl3qu,vsZDNvdk,2020-0188,2020-06-04,12:36:07,12:55:11,NA,incomplete,122,gender,2,1,left,A_F_15.jpg,C_F_05.jpg,A_M_16.jpg,right,1291.5499999944586,false,high,false
vsZDNvdk,31mcue39cnznpis152nuvogcfi93g2,3z3zlgnnsm7gprk9z0x8emg58wl3qu,vsZDNvdk,2020-0188,2020-06-04,12:36:07,12:55:11,NA,incomplete,123,gender,2,0,left,C_M_09.jpg,A_M_01.jpg,C_F_10.jpg,none,0,false,high,false
vsZDNvdk,31mcue39cnznpis152nuvogcfi93g2,3z3zlgnnsm7gprk9z0x8emg58wl3qu,vsZDNvdk,2020-0188,2020-06-04,12:36:07,12:55:11,NA,incomplete,124,gender,2,1,left,A_M_09.jpg,C_M_01.jpg,A_F_04.jpg,right,1318.2749999978114,false,high,false
vsZDNvdk,31mcue39cnznpis152nuvogcfi93g2,3z3zlgnnsm7gprk9z0x8emg58wl3qu,vsZDNvdk,2020-0188,2020-06-04,12:36:07,12:55:11,NA,incomplete,125,gender,2,1,right,A_M_03.jpg,A_F_04.jpg,C_M_13.jpg,right,1064.9950000224635,true,high,false
vsZDNvdk,31mcue39cnznpis152nuvogcfi93g2,3z3zlgnnsm7gprk9z0x8emg58wl3qu,vsZDNvdk,2020-0188,2020-06-04,12:36:07,12:55:11,NA,incomplete,126,gender,2,1,right,A_F_09.jpg,A_M_06.jpg,C_F_03.jpg,right,914.3399999884423,true,high,false
vsZDNvdk,31mcue39cnznpis152nuvogcfi93g2,3z3zlgnnsm7gprk9z0x8emg58wl3qu,vsZDNvdk,2020-0188,2020-06-04,12:36:07,12:55:11,NA,incomplete,127,gender,2,1,left,C_M_06.jpg,A_M_16.jpg,C_F_04.jpg,left,833.7150000152178,true,high,false
vsZDNvdk,31mcue39cnznpis152nuvogcfi93g2,3z3zlgnnsm7gprk9z0x8emg58wl3qu,vsZDNvdk,2020-0188,2020-06-04,12:36:07,12:55:11,NA,incomplete,128,gender,2,1,right,A_F_06.jpg,A_M_05.jpg,C_F_13.jpg,right,1179.3450000113808,true,high,false
vsZDNvdk,31mcue39cnznpis152nuvogcfi93g2,3z3zlgnnsm7gprk9z0x8emg58wl3qu,vsZDNvdk,2020-0188,2020-06-04,12:36:07,12:55:11,NA,incomplete,129,gender,2,1,left,A_M_02.jpg,C_M_13.jpg,A_F_12.jpg,left,669.3249999952968,true,high,false
vsZDNvdk,31mcue39cnznpis152nuvogcfi93g2,3z3zlgnnsm7gprk9z0x8emg58wl3qu,vsZDNvdk,2020-0188,2020-06-04,12:36:07,12:55:11,NA,incomplete,130,gender,2,1,right,A_M_13.jpg,A_F_11.jpg,C_M_05.jpg,right,784.0750000032131,true,high,false
vsZDNvdk,31mcue39cnznpis152nuvogcfi93g2,3z3zlgnnsm7gprk9z0x8emg58wl3qu,vsZDNvdk,2020-0188,2020-06-04,12:36:07,12:55:11,NA,incomplete,131,gender,2,0,right,C_F_02.jpg,C_M_10.jpg,A_F_05.jpg,right,782.6449999993201,true,high,false
vsZDNvdk,31mcue39cnznpis152nuvogcfi93g2,3z3zlgnnsm7gprk9z0x8emg58wl3qu,vsZDNvdk,2020-0188,2020-06-04,12:36:07,12:55:11,NA,incomplete,132,gender,2,1,right,A_M_05.jpg,A_F_12.jpg,C_M_07.jpg,left,1333.329999994021,false,high,false
vsZDNvdk,31mcue39cnznpis152nuvogcfi93g2,3z3zlgnnsm7gprk9z0x8emg58wl3qu,vsZDNvdk,2020-0188,2020-06-04,12:36:07,12:55:11,NA,incomplete,133,gender,2,1,right,C_M_07.jpg,C_F_03.jpg,A_M_08.jpg,right,1046.7700000153854,true,high,false
vsZDNvdk,31mcue39cnznpis152nuvogcfi93g2,3z3zlgnnsm7gprk9z0x8emg58wl3qu,vsZDNvdk,2020-0188,2020-06-04,12:36:07,12:55:11,NA,incomplete,134,gender,2,1,left,A_F_03.jpg,C_F_10.jpg,A_M_16.jpg,left,742.4149999860674,true,high,false
vsZDNvdk,31mcue39cnznpis152nuvogcfi93g2,3z3zlgnnsm7gprk9z0x8emg58wl3qu,vsZDNvdk,2020-0188,2020-06-04,12:36:07,12:55:11,NA,incomplete,135,gender,2,0,right,C_M_15.jpg,C_F_06.jpg,A_M_05.jpg,right,981.1200000112876,true,high,false
vsZDNvdk,31mcue39cnznpis152nuvogcfi93g2,3z3zlgnnsm7gprk9z0x8emg58wl3qu,vsZDNvdk,2020-0188,2020-06-04,12:36:07,12:55:11,NA,incomplete,136,gender,2,1,right,C_M_07.jpg,C_F_16.jpg,A_M_11.jpg,left,1182.6549999823328,false,high,false
vsZDNvdk,31mcue39cnznpis152nuvogcfi93g2,3z3zlgnnsm7gprk9z0x8emg58wl3qu,vsZDNvdk,2020-0188,2020-06-04,12:36:07,12:55:11,NA,incomplete,137,gender,2,0,left,A_F_04.jpg,C_F_15.jpg,A_M_02.jpg,left,949.9049999867566,true,high,false
vsZDNvdk,31mcue39cnznpis152nuvogcfi93g2,3z3zlgnnsm7gprk9z0x8emg58wl3qu,vsZDNvdk,2020-0188,2020-06-04,12:36:07,12:55:11,NA,incomplete,138,gender,2,1,left,A_F_13.jpg,C_F_10.jpg,A_M_03.jpg,left,1117.5099999818485,true,high,false
vsZDNvdk,31mcue39cnznpis152nuvogcfi93g2,3z3zlgnnsm7gprk9z0x8emg58wl3qu,vsZDNvdk,2020-0188,2020-06-04,12:36:07,12:55:11,NA,incomplete,139,gender,2,1,left,A_M_05.jpg,C_M_14.jpg,A_F_08.jpg,left,1158.915000007255,true,high,false
vsZDNvdk,31mcue39cnznpis152nuvogcfi93g2,3z3zlgnnsm7gprk9z0x8emg58wl3qu,vsZDNvdk,2020-0188,2020-06-04,12:36:07,12:55:11,NA,incomplete,140,race,3,1,right,A_F_01.jpg,C_F_13.jpg,A_M_07.jpg,left,804.0899999905378,false,high,false
vsZDNvdk,31mcue39cnznpis152nuvogcfi93g2,3z3zlgnnsm7gprk9z0x8emg58wl3qu,vsZDNvdk,2020-0188,2020-06-04,12:36:07,12:55:11,NA,incomplete,141,race,3,0,left,C_F_02.jpg,C_M_12.jpg,A_F_04.jpg,left,1124.7699999948964,true,high,false
vsZDNvdk,31mcue39cnznpis152nuvogcfi93g2,3z3zlgnnsm7gprk9z0x8emg58wl3qu,vsZDNvdk,2020-0188,2020-06-04,12:36:07,12:55:11,NA,incomplete,142,race,3,1,right,C_F_11.jpg,A_F_10.jpg,C_M_05.jpg,right,1744.7899999970105,true,high,false
vsZDNvdk,31mcue39cnznpis152nuvogcfi93g2,3z3zlgnnsm7gprk9z0x8emg58wl3qu,vsZDNvdk,2020-0188,2020-06-04,12:36:07,12:55:11,NA,incomplete,143,race,3,1,left,C_M_11.jpg,C_F_04.jpg,A_M_08.jpg,left,1063.1500000017695,true,high,false
vsZDNvdk,31mcue39cnznpis152nuvogcfi93g2,3z3zlgnnsm7gprk9z0x8emg58wl3qu,vsZDNvdk,2020-0188,2020-06-04,12:36:07,12:55:11,NA,incomplete,144,race,3,1,right,C_F_07.jpg,A_F_13.jpg,C_M_11.jpg,right,1071.1650000012014,true,high,false
vsZDNvdk,31mcue39cnznpis152nuvogcfi93g2,3z3zlgnnsm7gprk9z0x8emg58wl3qu,vsZDNvdk,2020-0188,2020-06-04,12:36:07,12:55:11,NA,incomplete,145,race,3,0,left,A_F_07.jpg,A_M_03.jpg,C_F_05.jpg,left,1013.6749999946915,true,high,false
vsZDNvdk,31mcue39cnznpis152nuvogcfi93g2,3z3zlgnnsm7gprk9z0x8emg58wl3qu,vsZDNvdk,2020-0188,2020-06-04,12:36:07,12:55:11,NA,incomplete,146,race,3,1,right,C_M_06.jpg,A_M_07.jpg,C_F_14.jpg,left,671.7599999974482,false,high,false
vsZDNvdk,31mcue39cnznpis152nuvogcfi93g2,3z3zlgnnsm7gprk9z0x8emg58wl3qu,vsZDNvdk,2020-0188,2020-06-04,12:36:07,12:55:11,NA,incomplete,147,race,3,1,right,C_M_03.jpg,A_M_07.jpg,C_F_11.jpg,right,1084.7050000156742,true,high,false
vsZDNvdk,31mcue39cnznpis152nuvogcfi93g2,3z3zlgnnsm7gprk9z0x8emg58wl3qu,vsZDNvdk,2020-0188,2020-06-04,12:36:07,12:55:11,NA,incomplete,148,race,3,1,left,A_F_12.jpg,A_M_14.jpg,C_F_13.jpg,left,827.6049999985844,true,high,false
vsZDNvdk,31mcue39cnznpis152nuvogcfi93g2,3z3zlgnnsm7gprk9z0x8emg58wl3qu,vsZDNvdk,2020-0188,2020-06-04,12:36:07,12:55:11,NA,incomplete,149,race,3,0,left,A_F_08.jpg,A_M_14.jpg,C_F_03.jpg,left,825.3899999835994,true,high,false
vsZDNvdk,31mcue39cnznpis152nuvogcfi93g2,3z3zlgnnsm7gprk9z0x8emg58wl3qu,vsZDNvdk,2020-0188,2020-06-04,12:36:07,12:55:11,NA,incomplete,150,race,3,1,right,C_M_16.jpg,A_M_14.jpg,C_F_09.jpg,right,1398.7699999997858,true,high,false
vsZDNvdk,31mcue39cnznpis152nuvogcfi93g2,3z3zlgnnsm7gprk9z0x8emg58wl3qu,vsZDNvdk,2020-0188,2020-06-04,12:36:07,12:55:11,NA,incomplete,151,race,3,1,left,A_F_02.jpg,A_M_07.jpg,C_F_03.jpg,left,724.4399999908637,true,high,false
vsZDNvdk,31mcue39cnznpis152nuvogcfi93g2,3z3zlgnnsm7gprk9z0x8emg58wl3qu,vsZDNvdk,2020-0188,2020-06-04,12:36:07,12:55:11,NA,incomplete,152,race,3,1,right,A_F_01.jpg,C_F_10.jpg,A_M_11.jpg,right,853.9049999963026,true,high,false
vsZDNvdk,31mcue39cnznpis152nuvogcfi93g2,3z3zlgnnsm7gprk9z0x8emg58wl3qu,vsZDNvdk,2020-0188,2020-06-04,12:36:07,12:55:11,NA,incomplete,153,race,3,0,right,A_M_02.jpg,C_M_11.jpg,A_F_03.jpg,right,1063.6999999987893,true,high,false
vsZDNvdk,31mcue39cnznpis152nuvogcfi93g2,3z3zlgnnsm7gprk9z0x8emg58wl3qu,vsZDNvdk,2020-0188,2020-06-04,12:36:07,12:55:11,NA,incomplete,154,race,3,1,left,A_F_16.jpg,A_M_05.jpg,C_F_14.jpg,right,807.0999999763444,false,high,false
vsZDNvdk,31mcue39cnznpis152nuvogcfi93g2,3z3zlgnnsm7gprk9z0x8emg58wl3qu,vsZDNvdk,2020-0188,2020-06-04,12:36:07,12:55:11,NA,incomplete,155,race,3,0,left,C_M_15.jpg,C_F_08.jpg,A_M_10.jpg,left,1101.669999974547,true,high,false
vsZDNvdk,31mcue39cnznpis152nuvogcfi93g2,3z3zlgnnsm7gprk9z0x8emg58wl3qu,vsZDNvdk,2020-0188,2020-06-04,12:36:07,12:55:11,NA,incomplete,156,race,3,1,right,C_M_03.jpg,A_M_13.jpg,C_F_05.jpg,left,1291.8549999885727,false,high,false
vsZDNvdk,31mcue39cnznpis152nuvogcfi93g2,3z3zlgnnsm7gprk9z0x8emg58wl3qu,vsZDNvdk,2020-0188,2020-06-04,12:36:07,12:55:11,NA,incomplete,157,race,3,1,left,A_F_07.jpg,A_M_16.jpg,C_F_08.jpg,left,1319.7349999973085,true,high,false
vsZDNvdk,31mcue39cnznpis152nuvogcfi93g2,3z3zlgnnsm7gprk9z0x8emg58wl3qu,vsZDNvdk,2020-0188,2020-06-04,12:36:07,12:55:11,NA,incomplete,158,race,3,0,left,C_M_10.jpg,C_F_16.jpg,A_M_03.jpg,left,855.4750000184868,true,high,false
vsZDNvdk,31mcue39cnznpis152nuvogcfi93g2,3z3zlgnnsm7gprk9z0x8emg58wl3qu,vsZDNvdk,2020-0188,2020-06-04,12:36:07,12:55:11,NA,incomplete,159,race,3,1,left,C_M_12.jpg,C_F_15.jpg,A_M_07.jpg,right,766.734999982873,false,high,false
vsZDNvdk,31mcue39cnznpis152nuvogcfi93g2,3z3zlgnnsm7gprk9z0x8emg58wl3qu,vsZDNvdk,2020-0188,2020-06-04,12:36:07,12:55:11,NA,incomplete,160,gender,2,1,left,C_M_15.jpg,A_M_06.jpg,C_F_05.jpg,right,1080.6400000001304,false,high,false
vsZDNvdk,31mcue39cnznpis152nuvogcfi93g2,3z3zlgnnsm7gprk9z0x8emg58wl3qu,vsZDNvdk,2020-0188,2020-06-04,12:36:07,12:55:11,NA,incomplete,161,gender,2,1,right,A_F_01.jpg,A_M_04.jpg,C_F_02.jpg,right,786.4750000007916,true,high,false
vsZDNvdk,31mcue39cnznpis152nuvogcfi93g2,3z3zlgnnsm7gprk9z0x8emg58wl3qu,vsZDNvdk,2020-0188,2020-06-04,12:36:07,12:55:11,NA,incomplete,162,gender,2,1,right,A_M_10.jpg,A_F_03.jpg,C_M_15.jpg,right,1465.265000006184,true,high,false
vsZDNvdk,31mcue39cnznpis152nuvogcfi93g2,3z3zlgnnsm7gprk9z0x8emg58wl3qu,vsZDNvdk,2020-0188,2020-06-04,12:36:07,12:55:11,NA,incomplete,163,gender,2,1,left,C_F_06.jpg,A_F_13.jpg,C_M_02.jpg,left,1295.540000020992,true,high,false
vsZDNvdk,31mcue39cnznpis152nuvogcfi93g2,3z3zlgnnsm7gprk9z0x8emg58wl3qu,vsZDNvdk,2020-0188,2020-06-04,12:36:07,12:55:11,NA,incomplete,164,gender,2,1,right,A_M_12.jpg,A_F_14.jpg,C_M_16.jpg,right,613.5549999889918,true,high,false
vsZDNvdk,31mcue39cnznpis152nuvogcfi93g2,3z3zlgnnsm7gprk9z0x8emg58wl3qu,vsZDNvdk,2020-0188,2020-06-04,12:36:07,12:55:11,NA,incomplete,165,gender,2,0,left,A_F_01.jpg,C_F_07.jpg,A_M_13.jpg,left,672.5900000019465,true,high,false
vsZDNvdk,31mcue39cnznpis152nuvogcfi93g2,3z3zlgnnsm7gprk9z0x8emg58wl3qu,vsZDNvdk,2020-0188,2020-06-04,12:36:07,12:55:11,NA,incomplete,166,gender,2,1,left,A_F_11.jpg,C_F_09.jpg,A_M_07.jpg,right,981.4150000165682,false,high,false
vsZDNvdk,31mcue39cnznpis152nuvogcfi93g2,3z3zlgnnsm7gprk9z0x8emg58wl3qu,vsZDNvdk,2020-0188,2020-06-04,12:36:07,12:55:11,NA,incomplete,167,gender,2,1,right,C_F_07.jpg,C_M_12.jpg,A_F_14.jpg,right,921.7650000064168,true,high,false
vsZDNvdk,31mcue39cnznpis152nuvogcfi93g2,3z3zlgnnsm7gprk9z0x8emg58wl3qu,vsZDNvdk,2020-0188,2020-06-04,12:36:07,12:55:11,NA,incomplete,168,gender,2,0,left,C_M_07.jpg,A_M_04.jpg,C_F_16.jpg,left,802.4450000084471,true,high,false
vsZDNvdk,31mcue39cnznpis152nuvogcfi93g2,3z3zlgnnsm7gprk9z0x8emg58wl3qu,vsZDNvdk,2020-0188,2020-06-04,12:36:07,12:55:11,NA,incomplete,169,gender,2,1,right,C_M_09.jpg,C_F_01.jpg,A_M_15.jpg,left,1295.7299999834504,false,high,false
vsZDNvdk,31mcue39cnznpis152nuvogcfi93g2,3z3zlgnnsm7gprk9z0x8emg58wl3qu,vsZDNvdk,2020-0188,2020-06-04,12:36:07,12:55:11,NA,incomplete,170,gender,2,1,right,A_F_07.jpg,A_M_13.jpg,C_F_10.jpg,right,1278.2049999805167,true,high,false
vsZDNvdk,31mcue39cnznpis152nuvogcfi93g2,3z3zlgnnsm7gprk9z0x8emg58wl3qu,vsZDNvdk,2020-0188,2020-06-04,12:36:07,12:55:11,NA,incomplete,171,gender,2,1,right,C_F_07.jpg,C_M_12.jpg,A_F_09.jpg,right,924.7399999876507,true,high,false
vsZDNvdk,31mcue39cnznpis152nuvogcfi93g2,3z3zlgnnsm7gprk9z0x8emg58wl3qu,vsZDNvdk,2020-0188,2020-06-04,12:36:07,12:55:11,NA,incomplete,172,gender,2,1,right,A_F_02.jpg,A_M_16.jpg,C_F_12.jpg,right,1077.9299999994691,true,high,false
vsZDNvdk,31mcue39cnznpis152nuvogcfi93g2,3z3zlgnnsm7gprk9z0x8emg58wl3qu,vsZDNvdk,2020-0188,2020-06-04,12:36:07,12:55:11,NA,incomplete,173,gender,2,1,left,A_F_12.jpg,C_F_11.jpg,A_M_08.jpg,left,747.2700000216719,true,high,false
vsZDNvdk,31mcue39cnznpis152nuvogcfi93g2,3z3zlgnnsm7gprk9z0x8emg58wl3qu,vsZDNvdk,2020-0188,2020-06-04,12:36:07,12:55:11,NA,incomplete,174,gender,2,1,right,C_F_09.jpg,C_M_12.jpg,A_F_13.jpg,right,953.1750000023749,true,high,false
vsZDNvdk,31mcue39cnznpis152nuvogcfi93g2,3z3zlgnnsm7gprk9z0x8emg58wl3qu,vsZDNvdk,2020-0188,2020-06-04,12:36:07,12:55:11,NA,incomplete,175,gender,2,1,right,C_M_05.jpg,C_F_01.jpg,A_M_14.jpg,right,1127.1399999968708,true,high,false
vsZDNvdk,31mcue39cnznpis152nuvogcfi93g2,3z3zlgnnsm7gprk9z0x8emg58wl3qu,vsZDNvdk,2020-0188,2020-06-04,12:36:07,12:55:11,NA,incomplete,176,gender,2,1,right,C_F_04.jpg,C_M_16.jpg,A_F_05.jpg,right,864.3299999821465,true,high,false
vsZDNvdk,31mcue39cnznpis152nuvogcfi93g2,3z3zlgnnsm7gprk9z0x8emg58wl3qu,vsZDNvdk,2020-0188,2020-06-04,12:36:07,12:55:11,NA,incomplete,177,gender,2,1,right,C_F_11.jpg,C_M_05.jpg,A_F_12.jpg,right,1014.8449999978766,true,high,false
vsZDNvdk,31mcue39cnznpis152nuvogcfi93g2,3z3zlgnnsm7gprk9z0x8emg58wl3qu,vsZDNvdk,2020-0188,2020-06-04,12:36:07,12:55:11,NA,incomplete,178,gender,2,1,left,A_M_08.jpg,C_M_06.jpg,A_F_09.jpg,right,838.4599999990314,false,high,false
vsZDNvdk,31mcue39cnznpis152nuvogcfi93g2,3z3zlgnnsm7gprk9z0x8emg58wl3qu,vsZDNvdk,2020-0188,2020-06-04,12:36:07,12:55:11,NA,incomplete,179,gender,2,1,left,A_M_12.jpg,C_M_02.jpg,A_F_05.jpg,left,947.6100000028964,true,high,false
vsZDNvdk,31mcue39cnznpis152nuvogcfi93g2,3z3zlgnnsm7gprk9z0x8emg58wl3qu,vsZDNvdk,2020-0188,2020-06-04,12:36:07,12:55:11,NA,incomplete,180,race,3,1,right,A_M_10.jpg,C_M_15.jpg,A_F_07.jpg,left,1023.5999999858905,false,high,false
vsZDNvdk,31mcue39cnznpis152nuvogcfi93g2,3z3zlgnnsm7gprk9z0x8emg58wl3qu,vsZDNvdk,2020-0188,2020-06-04,12:36:07,12:55:11,NA,incomplete,181,race,3,1,left,A_F_07.jpg,A_M_08.jpg,C_F_03.jpg,right,1185.1549999846611,false,high,false
vsZDNvdk,31mcue39cnznpis152nuvogcfi93g2,3z3zlgnnsm7gprk9z0x8emg58wl3qu,vsZDNvdk,2020-0188,2020-06-04,12:36:07,12:55:11,NA,incomplete,182,race,3,1,left,C_M_13.jpg,C_F_09.jpg,A_M_04.jpg,left,890.095000009751,true,high,false
vsZDNvdk,31mcue39cnznpis152nuvogcfi93g2,3z3zlgnnsm7gprk9z0x8emg58wl3qu,vsZDNvdk,2020-0188,2020-06-04,12:36:07,12:55:11,NA,incomplete,183,race,3,1,right,A_M_01.jpg,C_M_08.jpg,A_F_10.jpg,right,756.0949999897275,true,high,false
vsZDNvdk,31mcue39cnznpis152nuvogcfi93g2,3z3zlgnnsm7gprk9z0x8emg58wl3qu,vsZDNvdk,2020-0188,2020-06-04,12:36:07,12:55:11,NA,incomplete,184,race,3,1,right,C_F_14.jpg,A_F_13.jpg,C_M_06.jpg,right,1032.005000015488,true,high,false
vsZDNvdk,31mcue39cnznpis152nuvogcfi93g2,3z3zlgnnsm7gprk9z0x8emg58wl3qu,vsZDNvdk,2020-0188,2020-06-04,12:36:07,12:55:11,NA,incomplete,185,race,3,1,right,C_M_03.jpg,A_M_16.jpg,C_F_10.jpg,right,837.2249999956694,true,high,false
vsZDNvdk,31mcue39cnznpis152nuvogcfi93g2,3z3zlgnnsm7gprk9z0x8emg58wl3qu,vsZDNvdk,2020-0188,2020-06-04,12:36:07,12:55:11,NA,incomplete,186,race,3,1,left,C_F_13.jpg,C_M_06.jpg,A_F_15.jpg,right,1017.9700000153389,false,high,false
vsZDNvdk,31mcue39cnznpis152nuvogcfi93g2,3z3zlgnnsm7gprk9z0x8emg58wl3qu,vsZDNvdk,2020-0188,2020-06-04,12:36:07,12:55:11,NA,incomplete,187,race,3,1,left,A_M_12.jpg,A_F_08.jpg,C_M_10.jpg,left,916.4100000052713,true,high,false
vsZDNvdk,31mcue39cnznpis152nuvogcfi93g2,3z3zlgnnsm7gprk9z0x8emg58wl3qu,vsZDNvdk,2020-0188,2020-06-04,12:36:07,12:55:11,NA,incomplete,188,race,3,1,right,A_F_11.jpg,C_F_10.jpg,A_M_05.jpg,right,1531.0449999815319,true,high,false
vsZDNvdk,31mcue39cnznpis152nuvogcfi93g2,3z3zlgnnsm7gprk9z0x8emg58wl3qu,vsZDNvdk,2020-0188,2020-06-04,12:36:07,12:55:11,NA,incomplete,189,race,3,0,left,A_F_04.jpg,A_M_02.jpg,C_F_14.jpg,left,1811.519999988377,true,high,false
vsZDNvdk,31mcue39cnznpis152nuvogcfi93g2,3z3zlgnnsm7gprk9z0x8emg58wl3qu,vsZDNvdk,2020-0188,2020-06-04,12:36:07,12:55:11,NA,incomplete,190,race,3,1,left,A_F_12.jpg,A_M_14.jpg,C_F_08.jpg,right,1196.8999999808148,false,high,false
vsZDNvdk,31mcue39cnznpis152nuvogcfi93g2,3z3zlgnnsm7gprk9z0x8emg58wl3qu,vsZDNvdk,2020-0188,2020-06-04,12:36:07,12:55:11,NA,incomplete,191,race,3,1,right,C_M_02.jpg,A_M_16.jpg,C_F_04.jpg,right,1104.81499999878,true,high,false
vsZDNvdk,31mcue39cnznpis152nuvogcfi93g2,3z3zlgnnsm7gprk9z0x8emg58wl3qu,vsZDNvdk,2020-0188,2020-06-04,12:36:07,12:55:11,NA,incomplete,192,race,3,1,right,A_F_07.jpg,C_F_02.jpg,A_M_15.jpg,right,1944.515000010142,true,high,false
vsZDNvdk,31mcue39cnznpis152nuvogcfi93g2,3z3zlgnnsm7gprk9z0x8emg58wl3qu,vsZDNvdk,2020-0188,2020-06-04,12:36:07,12:55:11,NA,incomplete,193,race,3,1,right,A_F_13.jpg,C_F_06.jpg,A_M_07.jpg,right,908.0499999981839,true,high,false
vsZDNvdk,31mcue39cnznpis152nuvogcfi93g2,3z3zlgnnsm7gprk9z0x8emg58wl3qu,vsZDNvdk,2020-0188,2020-06-04,12:36:07,12:55:11,NA,incomplete,194,race,3,1,right,C_F_04.jpg,A_F_12.jpg,C_M_11.jpg,right,1126.6300000133924,true,high,false
vsZDNvdk,31mcue39cnznpis152nuvogcfi93g2,3z3zlgnnsm7gprk9z0x8emg58wl3qu,vsZDNvdk,2020-0188,2020-06-04,12:36:07,12:55:11,NA,incomplete,195,race,3,1,left,A_F_12.jpg,A_M_01.jpg,C_F_09.jpg,left,1019.960000005085,true,high,false
vsZDNvdk,31mcue39cnznpis152nuvogcfi93g2,3z3zlgnnsm7gprk9z0x8emg58wl3qu,vsZDNvdk,2020-0188,2020-06-04,12:36:07,12:55:11,NA,incomplete,196,race,3,1,right,A_M_07.jpg,C_M_05.jpg,A_F_03.jpg,right,1153.2550000119954,true,high,false
vsZDNvdk,31mcue39cnznpis152nuvogcfi93g2,3z3zlgnnsm7gprk9z0x8emg58wl3qu,vsZDNvdk,2020-0188,2020-06-04,12:36:07,12:55:11,NA,incomplete,197,race,3,0,left,A_F_04.jpg,A_M_10.jpg,C_F_05.jpg,left,1102.4449999968056,true,high,false
vsZDNvdk,31mcue39cnznpis152nuvogcfi93g2,3z3zlgnnsm7gprk9z0x8emg58wl3qu,vsZDNvdk,2020-0188,2020-06-04,12:36:07,12:55:11,NA,incomplete,198,race,3,1,left,C_F_10.jpg,C_M_06.jpg,A_F_12.jpg,right,739.4299999868963,false,high,false
vsZDNvdk,31mcue39cnznpis152nuvogcfi93g2,3z3zlgnnsm7gprk9z0x8emg58wl3qu,vsZDNvdk,2020-0188,2020-06-04,12:36:07,12:55:11,NA,incomplete,199,race,3,1,right,A_M_08.jpg,C_M_13.jpg,A_F_11.jpg,right,894.9100000027101,true,high,false
vsZDNvdk,31mcue39cnznpis152nuvogcfi93g2,3z3zlgnnsm7gprk9z0x8emg58wl3qu,vsZDNvdk,2020-0188,2020-06-04,12:36:07,12:55:11,NA,incomplete,200,gender,2,1,left,A_M_16.jpg,C_M_03.jpg,A_F_06.jpg,left,1997.5649999978486,true,high,false
vsZDNvdk,31mcue39cnznpis152nuvogcfi93g2,3z3zlgnnsm7gprk9z0x8emg58wl3qu,vsZDNvdk,2020-0188,2020-06-04,12:36:07,12:55:11,NA,incomplete,201,gender,2,1,left,C_M_08.jpg,A_M_01.jpg,C_F_04.jpg,left,1529.2600000102539,true,high,false
vsZDNvdk,31mcue39cnznpis152nuvogcfi93g2,3z3zlgnnsm7gprk9z0x8emg58wl3qu,vsZDNvdk,2020-0188,2020-06-04,12:36:07,12:55:11,NA,incomplete,202,gender,2,0,right,A_F_03.jpg,A_M_07.jpg,C_F_11.jpg,right,680.9349999821279,true,high,false
vsZDNvdk,31mcue39cnznpis152nuvogcfi93g2,3z3zlgnnsm7gprk9z0x8emg58wl3qu,vsZDNvdk,2020-0188,2020-06-04,12:36:07,12:55:11,NA,incomplete,203,gender,2,1,left,A_F_03.jpg,C_F_04.jpg,A_M_09.jpg,left,1867.2150000056718,true,high,false
vsZDNvdk,31mcue39cnznpis152nuvogcfi93g2,3z3zlgnnsm7gprk9z0x8emg58wl3qu,vsZDNvdk,2020-0188,2020-06-04,12:36:07,12:55:11,NA,incomplete,204,gender,2,1,right,C_M_15.jpg,C_F_10.jpg,A_M_05.jpg,right,1416.3750000006985,true,high,false
vsZDNvdk,31mcue39cnznpis152nuvogcfi93g2,3z3zlgnnsm7gprk9z0x8emg58wl3qu,vsZDNvdk,2020-0188,2020-06-04,12:36:07,12:55:11,NA,incomplete,205,gender,2,0,right,C_M_11.jpg,C_F_02.jpg,A_M_08.jpg,right,1614.8699999903329,true,high,false
vsZDNvdk,31mcue39cnznpis152nuvogcfi93g2,3z3zlgnnsm7gprk9z0x8emg58wl3qu,vsZDNvdk,2020-0188,2020-06-04,12:36:07,12:55:11,NA,incomplete,206,gender,2,1,left,A_M_08.jpg,C_M_01.jpg,A_F_04.jpg,right,1031.0750000062399,false,high,false
vsZDNvdk,31mcue39cnznpis152nuvogcfi93g2,3z3zlgnnsm7gprk9z0x8emg58wl3qu,vsZDNvdk,2020-0188,2020-06-04,12:36:07,12:55:11,NA,incomplete,207,gender,2,0,right,A_F_09.jpg,A_M_05.jpg,C_F_02.jpg,right,799.204999988433,true,high,false
vsZDNvdk,31mcue39cnznpis152nuvogcfi93g2,3z3zlgnnsm7gprk9z0x8emg58wl3qu,vsZDNvdk,2020-0188,2020-06-04,12:36:07,12:55:11,NA,incomplete,208,gender,2,1,right,C_F_09.jpg,C_M_15.jpg,A_F_10.jpg,left,1286.1800000246149,false,high,false
vsZDNvdk,31mcue39cnznpis152nuvogcfi93g2,3z3zlgnnsm7gprk9z0x8emg58wl3qu,vsZDNvdk,2020-0188,2020-06-04,12:36:07,12:55:11,NA,incomplete,209,gender,2,1,right,C_M_14.jpg,C_F_15.jpg,A_M_04.jpg,left,1363.6850000184495,false,high,false
vsZDNvdk,31mcue39cnznpis152nuvogcfi93g2,3z3zlgnnsm7gprk9z0x8emg58wl3qu,vsZDNvdk,2020-0188,2020-06-04,12:36:07,12:55:11,NA,incomplete,210,gender,2,1,right,C_F_05.jpg,C_M_09.jpg,A_F_16.jpg,right,1252.2900000039954,true,high,false
vsZDNvdk,31mcue39cnznpis152nuvogcfi93g2,3z3zlgnnsm7gprk9z0x8emg58wl3qu,vsZDNvdk,2020-0188,2020-06-04,12:36:07,12:55:11,NA,incomplete,211,gender,2,1,right,A_M_06.jpg,A_F_03.jpg,C_M_14.jpg,right,975.639999989653,true,high,false
vsZDNvdk,31mcue39cnznpis152nuvogcfi93g2,3z3zlgnnsm7gprk9z0x8emg58wl3qu,vsZDNvdk,2020-0188,2020-06-04,12:36:07,12:55:11,NA,incomplete,212,gender,2,0,right,A_M_09.jpg,A_F_14.jpg,C_M_05.jpg,right,715.4850000224542,true,high,false
vsZDNvdk,31mcue39cnznpis152nuvogcfi93g2,3z3zlgnnsm7gprk9z0x8emg58wl3qu,vsZDNvdk,2020-0188,2020-06-04,12:36:07,12:55:11,NA,incomplete,213,gender,2,1,right,A_M_05.jpg,A_F_08.jpg,C_M_07.jpg,none,0,false,high,false
vsZDNvdk,31mcue39cnznpis152nuvogcfi93g2,3z3zlgnnsm7gprk9z0x8emg58wl3qu,vsZDNvdk,2020-0188,2020-06-04,12:36:07,12:55:11,NA,incomplete,214,gender,2,1,right,A_M_09.jpg,A_F_10.jpg,C_M_14.jpg,right,1213.0299999844283,true,high,false
vsZDNvdk,31mcue39cnznpis152nuvogcfi93g2,3z3zlgnnsm7gprk9z0x8emg58wl3qu,vsZDNvdk,2020-0188,2020-06-04,12:36:07,12:55:11,NA,incomplete,215,gender,2,0,right,C_F_08.jpg,C_M_09.jpg,A_F_10.jpg,right,1770.829999994021,true,high,false
vsZDNvdk,31mcue39cnznpis152nuvogcfi93g2,3z3zlgnnsm7gprk9z0x8emg58wl3qu,vsZDNvdk,2020-0188,2020-06-04,12:36:07,12:55:11,NA,incomplete,216,gender,2,1,right,C_M_04.jpg,C_F_10.jpg,A_M_14.jpg,left,1641.8049999920186,false,high,false
vsZDNvdk,31mcue39cnznpis152nuvogcfi93g2,3z3zlgnnsm7gprk9z0x8emg58wl3qu,vsZDNvdk,2020-0188,2020-06-04,12:36:07,12:55:11,NA,incomplete,217,gender,2,1,right,C_M_02.jpg,C_F_13.jpg,A_M_04.jpg,right,1849.885000003269,true,high,false
vsZDNvdk,31mcue39cnznpis152nuvogcfi93g2,3z3zlgnnsm7gprk9z0x8emg58wl3qu,vsZDNvdk,2020-0188,2020-06-04,12:36:07,12:55:11,NA,incomplete,218,gender,2,1,left,A_M_02.jpg,C_M_08.jpg,A_F_15.jpg,none,0,false,high,false
vsZDNvdk,31mcue39cnznpis152nuvogcfi93g2,3z3zlgnnsm7gprk9z0x8emg58wl3qu,vsZDNvdk,2020-0188,2020-06-04,12:36:07,12:55:11,NA,incomplete,219,gender,2,0,right,A_M_01.jpg,A_F_05.jpg,C_M_12.jpg,left,1100.3299999865703,false,high,false
vsZDNvdk,31mcue39cnznpis152nuvogcfi93g2,3z3zlgnnsm7gprk9z0x8emg58wl3qu,vsZDNvdk,2020-0188,2020-06-04,12:36:07,12:55:11,NA,incomplete,220,race,3,1,left,C_M_12.jpg,C_F_11.jpg,A_M_16.jpg,left,962.4100000073668,true,high,false
vsZDNvdk,31mcue39cnznpis152nuvogcfi93g2,3z3zlgnnsm7gprk9z0x8emg58wl3qu,vsZDNvdk,2020-0188,2020-06-04,12:36:07,12:55:11,NA,incomplete,221,race,3,1,left,A_M_11.jpg,A_F_01.jpg,C_M_07.jpg,left,1032.5299999967683,true,high,false
vsZDNvdk,31mcue39cnznpis152nuvogcfi93g2,3z3zlgnnsm7gprk9z0x8emg58wl3qu,vsZDNvdk,2020-0188,2020-06-04,12:36:07,12:55:11,NA,incomplete,222,race,3,1,left,A_M_10.jpg,A_F_08.jpg,C_M_07.jpg,right,1287.5849999836646,false,high,false
vsZDNvdk,31mcue39cnznpis152nuvogcfi93g2,3z3zlgnnsm7gprk9z0x8emg58wl3qu,vsZDNvdk,2020-0188,2020-06-04,12:36:07,12:55:11,NA,incomplete,223,race,3,1,right,C_F_03.jpg,A_F_05.jpg,C_M_07.jpg,right,1247.3100000061095,true,high,false
vsZDNvdk,31mcue39cnznpis152nuvogcfi93g2,3z3zlgnnsm7gprk9z0x8emg58wl3qu,vsZDNvdk,2020-0188,2020-06-04,12:36:07,12:55:11,NA,incomplete,224,race,3,1,left,A_M_11.jpg,A_F_03.jpg,C_M_12.jpg,left,1008.0099999904633,true,high,false
vsZDNvdk,31mcue39cnznpis152nuvogcfi93g2,3z3zlgnnsm7gprk9z0x8emg58wl3qu,vsZDNvdk,2020-0188,2020-06-04,12:36:07,12:55:11,NA,incomplete,225,race,3,1,right,C_M_14.jpg,A_M_08.jpg,C_F_15.jpg,right,1312.1600000013132,true,high,false
vsZDNvdk,31mcue39cnznpis152nuvogcfi93g2,3z3zlgnnsm7gprk9z0x8emg58wl3qu,vsZDNvdk,2020-0188,2020-06-04,12:36:07,12:55:11,NA,incomplete,226,race,3,1,left,A_M_02.jpg,A_F_06.jpg,C_M_15.jpg,left,1436.9449999940116,true,high,false
vsZDNvdk,31mcue39cnznpis152nuvogcfi93g2,3z3zlgnnsm7gprk9z0x8emg58wl3qu,vsZDNvdk,2020-0188,2020-06-04,12:36:07,12:55:11,NA,incomplete,227,race,3,1,right,A_F_09.jpg,C_F_12.jpg,A_M_05.jpg,right,975.1749999995809,true,high,false
vsZDNvdk,31mcue39cnznpis152nuvogcfi93g2,3z3zlgnnsm7gprk9z0x8emg58wl3qu,vsZDNvdk,2020-0188,2020-06-04,12:36:07,12:55:11,NA,incomplete,228,race,3,0,left,C_F_10.jpg,C_M_08.jpg,A_F_06.jpg,left,1562.5599999912083,true,high,false
vsZDNvdk,31mcue39cnznpis152nuvogcfi93g2,3z3zlgnnsm7gprk9z0x8emg58wl3qu,vsZDNvdk,2020-0188,2020-06-04,12:36:07,12:55:11,NA,incomplete,229,race,3,1,right,A_M_04.jpg,C_M_15.jpg,A_F_03.jpg,left,1199.995000002673,false,high,false
vsZDNvdk,31mcue39cnznpis152nuvogcfi93g2,3z3zlgnnsm7gprk9z0x8emg58wl3qu,vsZDNvdk,2020-0188,2020-06-04,12:36:07,12:55:11,NA,incomplete,230,race,3,1,right,A_M_06.jpg,C_M_09.jpg,A_F_15.jpg,right,1265.1500000210945,true,high,false
vsZDNvdk,31mcue39cnznpis152nuvogcfi93g2,3z3zlgnnsm7gprk9z0x8emg58wl3qu,vsZDNvdk,2020-0188,2020-06-04,12:36:07,12:55:11,NA,incomplete,231,race,3,0,right,C_M_03.jpg,A_M_10.jpg,C_F_09.jpg,right,1377.9800000193063,true,high,false
vsZDNvdk,31mcue39cnznpis152nuvogcfi93g2,3z3zlgnnsm7gprk9z0x8emg58wl3qu,vsZDNvdk,2020-0188,2020-06-04,12:36:07,12:55:11,NA,incomplete,232,race,3,1,right,A_F_13.jpg,C_F_14.jpg,A_M_11.jpg,right,1304.9600000085775,true,high,false
vsZDNvdk,31mcue39cnznpis152nuvogcfi93g2,3z3zlgnnsm7gprk9z0x8emg58wl3qu,vsZDNvdk,2020-0188,2020-06-04,12:36:07,12:55:11,NA,incomplete,233,race,3,0,left,A_F_10.jpg,A_M_05.jpg,C_F_08.jpg,left,1459.389999974519,true,high,false
vsZDNvdk,31mcue39cnznpis152nuvogcfi93g2,3z3zlgnnsm7gprk9z0x8emg58wl3qu,vsZDNvdk,2020-0188,2020-06-04,12:36:07,12:55:11,NA,incomplete,234,race,3,1,right,A_F_05.jpg,C_F_08.jpg,A_M_10.jpg,right,1196.2300000013784,true,high,false
vsZDNvdk,31mcue39cnznpis152nuvogcfi93g2,3z3zlgnnsm7gprk9z0x8emg58wl3qu,vsZDNvdk,2020-0188,2020-06-04,12:36:07,12:55:11,NA,incomplete,235,race,3,1,right,C_F_04.jpg,A_F_01.jpg,C_M_02.jpg,none,0,false,high,false
vsZDNvdk,31mcue39cnznpis152nuvogcfi93g2,3z3zlgnnsm7gprk9z0x8emg58wl3qu,vsZDNvdk,2020-0188,2020-06-04,12:36:07,12:55:11,NA,incomplete,236,race,3,1,right,A_M_14.jpg,C_M_05.jpg,A_F_03.jpg,right,920.4800000006799,true,high,false
vsZDNvdk,31mcue39cnznpis152nuvogcfi93g2,3z3zlgnnsm7gprk9z0x8emg58wl3qu,vsZDNvdk,2020-0188,2020-06-04,12:36:07,12:55:11,NA,incomplete,237,race,3,0,left,C_F_16.jpg,C_M_15.jpg,A_F_05.jpg,left,1179.7350000124425,true,high,false
vsZDNvdk,31mcue39cnznpis152nuvogcfi93g2,3z3zlgnnsm7gprk9z0x8emg58wl3qu,vsZDNvdk,2020-0188,2020-06-04,12:36:07,12:55:11,NA,incomplete,238,race,3,1,left,A_F_13.jpg,A_M_04.jpg,C_F_03.jpg,right,1019.2499999830034,false,high,false
vsZDNvdk,31mcue39cnznpis152nuvogcfi93g2,3z3zlgnnsm7gprk9z0x8emg58wl3qu,vsZDNvdk,2020-0188,2020-06-04,12:36:07,12:55:11,NA,incomplete,239,race,3,1,right,A_M_08.jpg,C_M_09.jpg,A_F_11.jpg,right,953.9400000066962,true,high,false
vsZDNvdk,31mcue39cnznpis152nuvogcfi93g2,3z3zlgnnsm7gprk9z0x8emg58wl3qu,vsZDNvdk,2020-0188,2020-06-04,12:36:07,12:55:11,NA,NA,instruction example,number,NA,NA,NA,Blue_Star_Dots_1.jpg,Purple_Plus_Stripes_1.jpg,Green_Circle_Dots_4.jpg,NA,NA,NA,NA,undefined
vsZDNvdk,31mcue39cnznpis152nuvogcfi93g2,3z3zlgnnsm7gprk9z0x8emg58wl3qu,vsZDNvdk,2020-0188,2020-06-04,12:36:07,12:55:11,NA,NA,instruction example,number,NA,NA,NA,Green_Plus_Stripes_2.jpg,Red_Star_Stripes_1.jpg,Blue_Circle_Grid_2.jpg,NA,NA,NA,NA,undefined
vsZDNvdk,31mcue39cnznpis152nuvogcfi93g2,3z3zlgnnsm7gprk9z0x8emg58wl3qu,vsZDNvdk,2020-0188,2020-06-04,12:36:07,12:55:11,NA,NA,instruction example,number,NA,NA,NA,A_F_02.jpg,C_F_07.jpg,A_M_04.jpg,NA,NA,NA,NA,undefined
vsZDNvdk,31mcue39cnznpis152nuvogcfi93g2,3z3zlgnnsm7gprk9z0x8emg58wl3qu,vsZDNvdk,2020-0188,2020-06-04,12:36:07,12:55:11,NA,NA,instruction example,number,NA,NA,NA,C_F_05.jpg,C_M_06.jpg,A_F_04.jpg,NA,NA,NA,NA,undefined
