workerId,hitId,assignmentId,subject,studyid,exp_date,exp_start,exp_end,time_start,time_end,trial,type,sequence,reward_validity,answer,image_top,image_left,image_right,response,response_time,response_acc,volatility,age,race,gender,ethnicity,color,vision,neuro,practice
KCHQWMb2,3kqc8jmjhf51pencp85cgosduim3h1,3z4gs9hpnznoksgh5drsrcbq88g776,KCHQWMb2,2020-0188,2020-06-04,10:45:56,11:32:20,NA,incomplete,0,shape,0,1,right,Green_Star_Chess_1.jpg,Blue_Plus_Dots_1.jpg,Red_Star_Grid_2.jpg,none,0,false,NA,NA,NA,NA,NA,NA,NA,NA,true
KCHQWMb2,3kqc8jmjhf51pencp85cgosduim3h1,3z4gs9hpnznoksgh5drsrcbq88g776,KCHQWMb2,2020-0188,2020-06-04,10:45:56,11:32:20,NA,incomplete,1,shape,0,1,right,Purple_Circle_Chess_4.jpg,Red_Triangle_Dots_4.jpg,Green_Circle_Grid_1.jpg,right,1750.4799999296665,true,NA,NA,NA,NA,NA,NA,NA,NA,true
KCHQWMb2,3kqc8jmjhf51pencp85cgosduim3h1,3z4gs9hpnznoksgh5drsrcbq88g776,KCHQWMb2,2020-0188,2020-06-04,10:45:56,11:32:20,NA,incomplete,2,shape,0,1,left,Blue_Plus_Dots_4.jpg,Purple_Plus_Chess_3.jpg,Red_Triangle_Stripes_4.jpg,left,1182.5749999843538,true,NA,NA,NA,NA,NA,NA,NA,NA,true
KCHQWMb2,3kqc8jmjhf51pencp85cgosduim3h1,3z4gs9hpnznoksgh5drsrcbq88g776,KCHQWMb2,2020-0188,2020-06-04,10:45:56,11:32:20,NA,incomplete,3,shape,0,1,left,Red_Circle_Chess_4.jpg,Green_Circle_Stripes_3.jpg,Blue_Plus_Dots_4.jpg,left,881.0649999650195,true,NA,NA,NA,NA,NA,NA,NA,NA,true
KCHQWMb2,3kqc8jmjhf51pencp85cgosduim3h1,3z4gs9hpnznoksgh5drsrcbq88g776,KCHQWMb2,2020-0188,2020-06-04,10:45:56,11:32:20,NA,incomplete,4,shape,0,1,left,Red_Star_Dots_1.jpg,Green_Star_Stripes_4.jpg,Blue_Plus_Grid_1.jpg,left,918.9800000749528,true,NA,NA,NA,NA,NA,NA,NA,NA,true
KCHQWMb2,3kqc8jmjhf51pencp85cgosduim3h1,3z4gs9hpnznoksgh5drsrcbq88g776,KCHQWMb2,2020-0188,2020-06-04,10:45:56,11:32:20,NA,incomplete,5,shape,0,1,left,Purple_Plus_Chess_2.jpg,Red_Plus_Stripes_4.jpg,Green_Circle_Grid_2.jpg,left,923.6050000181422,true,NA,NA,NA,NA,NA,NA,NA,NA,true
KCHQWMb2,3kqc8jmjhf51pencp85cgosduim3h1,3z4gs9hpnznoksgh5drsrcbq88g776,KCHQWMb2,2020-0188,2020-06-04,10:45:56,11:32:20,NA,incomplete,6,shape,0,1,right,Red_Circle_Chess_2.jpg,Green_Triangle_Stripes_2.jpg,Blue_Circle_Dots_3.jpg,right,820.5549999838695,true,NA,NA,NA,NA,NA,NA,NA,NA,true
KCHQWMb2,3kqc8jmjhf51pencp85cgosduim3h1,3z4gs9hpnznoksgh5drsrcbq88g776,KCHQWMb2,2020-0188,2020-06-04,10:45:56,11:32:20,NA,incomplete,7,shape,0,1,left,Red_Plus_Grid_3.jpg,Blue_Plus_Dots_4.jpg,Purple_Star_Chess_3.jpg,left,1007.4699999531731,true,NA,NA,NA,NA,NA,NA,NA,NA,true
KCHQWMb2,3kqc8jmjhf51pencp85cgosduim3h1,3z4gs9hpnznoksgh5drsrcbq88g776,KCHQWMb2,2020-0188,2020-06-04,10:45:56,11:32:20,NA,incomplete,8,shape,0,1,right,Green_Triangle_Chess_2.jpg,Purple_Plus_Grid_2.jpg,Red_Triangle_Dots_1.jpg,right,913.7000000337139,true,NA,NA,NA,NA,NA,NA,NA,NA,true
KCHQWMb2,3kqc8jmjhf51pencp85cgosduim3h1,3z4gs9hpnznoksgh5drsrcbq88g776,KCHQWMb2,2020-0188,2020-06-04,10:45:56,11:32:20,NA,incomplete,9,shape,0,1,right,Red_Plus_Grid_2.jpg,Purple_Triangle_Chess_2.jpg,Green_Plus_Stripes_3.jpg,right,852.8949999017641,true,NA,NA,NA,NA,NA,NA,NA,NA,true
KCHQWMb2,3kqc8jmjhf51pencp85cgosduim3h1,3z4gs9hpnznoksgh5drsrcbq88g776,KCHQWMb2,2020-0188,2020-06-04,10:45:56,11:32:20,NA,incomplete,10,shape,0,1,left,Blue_Star_Grid_2.jpg,Green_Star_Chess_1.jpg,Purple_Triangle_Stripes_2.jpg,left,900.4300000378862,true,NA,NA,NA,NA,NA,NA,NA,NA,true
KCHQWMb2,3kqc8jmjhf51pencp85cgosduim3h1,3z4gs9hpnznoksgh5drsrcbq88g776,KCHQWMb2,2020-0188,2020-06-04,10:45:56,11:32:20,NA,incomplete,11,shape,0,1,right,Blue_Plus_Grid_4.jpg,Green_Triangle_Dots_4.jpg,Purple_Plus_Stripes_2.jpg,left,985.3600000496954,false,NA,NA,NA,NA,NA,NA,NA,NA,true
KCHQWMb2,3kqc8jmjhf51pencp85cgosduim3h1,3z4gs9hpnznoksgh5drsrcbq88g776,KCHQWMb2,2020-0188,2020-06-04,10:45:56,11:32:20,NA,incomplete,12,shape,0,1,left,Red_Triangle_Stripes_2.jpg,Blue_Triangle_Chess_3.jpg,Green_Circle_Dots_2.jpg,left,1139.2749999649823,true,NA,NA,NA,NA,NA,NA,NA,NA,true
KCHQWMb2,3kqc8jmjhf51pencp85cgosduim3h1,3z4gs9hpnznoksgh5drsrcbq88g776,KCHQWMb2,2020-0188,2020-06-04,10:45:56,11:32:20,NA,incomplete,13,shape,0,1,right,Green_Triangle_Chess_2.jpg,Purple_Circle_Grid_2.jpg,Blue_Triangle_Dots_4.jpg,right,987.5650000758469,true,NA,NA,NA,NA,NA,NA,NA,NA,true
KCHQWMb2,3kqc8jmjhf51pencp85cgosduim3h1,3z4gs9hpnznoksgh5drsrcbq88g776,KCHQWMb2,2020-0188,2020-06-04,10:45:56,11:32:20,NA,incomplete,14,shape,0,1,right,Purple_Triangle_Chess_1.jpg,Blue_Circle_Stripes_1.jpg,Green_Triangle_Dots_4.jpg,right,843.8900000182912,true,NA,NA,NA,NA,NA,NA,NA,NA,true
KCHQWMb2,3kqc8jmjhf51pencp85cgosduim3h1,3z4gs9hpnznoksgh5drsrcbq88g776,KCHQWMb2,2020-0188,2020-06-04,10:45:56,11:32:20,NA,incomplete,15,shape,0,0,left,Red_Star_Stripes_1.jpg,Green_Star_Dots_3.jpg,Blue_Plus_Grid_1.jpg,left,907.719999901019,true,NA,NA,NA,NA,NA,NA,NA,NA,true
KCHQWMb2,3kqc8jmjhf51pencp85cgosduim3h1,3z4gs9hpnznoksgh5drsrcbq88g776,KCHQWMb2,2020-0188,2020-06-04,10:45:56,11:32:20,NA,incomplete,16,shape,0,0,left,Red_Star_Stripes_1.jpg,Blue_Star_Grid_2.jpg,Green_Circle_Chess_1.jpg,left,884.4200000166893,true,NA,NA,NA,NA,NA,NA,NA,NA,true
KCHQWMb2,3kqc8jmjhf51pencp85cgosduim3h1,3z4gs9hpnznoksgh5drsrcbq88g776,KCHQWMb2,2020-0188,2020-06-04,10:45:56,11:32:20,NA,incomplete,17,shape,0,1,left,Green_Star_Dots_1.jpg,Blue_Star_Chess_4.jpg,Purple_Plus_Grid_1.jpg,left,920.9500000579283,true,NA,NA,NA,NA,NA,NA,NA,NA,true
KCHQWMb2,3kqc8jmjhf51pencp85cgosduim3h1,3z4gs9hpnznoksgh5drsrcbq88g776,KCHQWMb2,2020-0188,2020-06-04,10:45:56,11:32:20,NA,incomplete,18,shape,0,1,right,Red_Plus_Stripes_1.jpg,Blue_Star_Grid_1.jpg,Purple_Plus_Chess_2.jpg,right,828.429999994114,true,NA,NA,NA,NA,NA,NA,NA,NA,true
KCHQWMb2,3kqc8jmjhf51pencp85cgosduim3h1,3z4gs9hpnznoksgh5drsrcbq88g776,KCHQWMb2,2020-0188,2020-06-04,10:45:56,11:32:20,NA,incomplete,19,shape,0,1,right,Blue_Plus_Stripes_1.jpg,Green_Star_Dots_1.jpg,Red_Plus_Grid_2.jpg,right,784.9399999249727,true,NA,NA,NA,NA,NA,NA,NA,NA,true
KCHQWMb2,3kqc8jmjhf51pencp85cgosduim3h1,3z4gs9hpnznoksgh5drsrcbq88g776,KCHQWMb2,2020-0188,2020-06-04,10:45:56,11:32:20,NA,incomplete,20,number,1,1,right,Green_Circle_Grid_2.jpg,Purple_Circle_Chess_3.jpg,Blue_Triangle_Dots_2.jpg,right,1405.970000079833,true,NA,NA,NA,NA,NA,NA,NA,NA,true
KCHQWMb2,3kqc8jmjhf51pencp85cgosduim3h1,3z4gs9hpnznoksgh5drsrcbq88g776,KCHQWMb2,2020-0188,2020-06-04,10:45:56,11:32:20,NA,incomplete,21,number,1,1,left,Green_Triangle_Grid_3.jpg,Blue_Circle_Chess_3.jpg,Purple_Triangle_Stripes_4.jpg,left,917.2049999469891,true,NA,NA,NA,NA,NA,NA,NA,NA,true
KCHQWMb2,3kqc8jmjhf51pencp85cgosduim3h1,3z4gs9hpnznoksgh5drsrcbq88g776,KCHQWMb2,2020-0188,2020-06-04,10:45:56,11:32:20,NA,incomplete,22,number,1,0,right,Green_Triangle_Chess_2.jpg,Red_Triangle_Grid_3.jpg,Blue_Circle_Stripes_2.jpg,left,916.884999955073,false,NA,NA,NA,NA,NA,NA,NA,NA,true
KCHQWMb2,3kqc8jmjhf51pencp85cgosduim3h1,3z4gs9hpnznoksgh5drsrcbq88g776,KCHQWMb2,2020-0188,2020-06-04,10:45:56,11:32:20,NA,incomplete,23,number,1,1,left,Green_Star_Dots_4.jpg,Purple_Plus_Grid_4.jpg,Red_Star_Stripes_2.jpg,left,859.7549999831244,true,NA,NA,NA,NA,NA,NA,NA,NA,true
KCHQWMb2,3kqc8jmjhf51pencp85cgosduim3h1,3z4gs9hpnznoksgh5drsrcbq88g776,KCHQWMb2,2020-0188,2020-06-04,10:45:56,11:32:20,NA,incomplete,24,number,1,0,right,Blue_Plus_Stripes_3.jpg,Red_Plus_Chess_4.jpg,Purple_Star_Dots_3.jpg,right,978.1199999852106,true,NA,NA,NA,NA,NA,NA,NA,NA,true
KCHQWMb2,3kqc8jmjhf51pencp85cgosduim3h1,3z4gs9hpnznoksgh5drsrcbq88g776,KCHQWMb2,2020-0188,2020-06-04,10:45:56,11:32:20,NA,incomplete,25,number,1,0,left,Purple_Triangle_Grid_4.jpg,Blue_Plus_Stripes_4.jpg,Green_Triangle_Dots_2.jpg,left,1000.4450000124052,true,NA,NA,NA,NA,NA,NA,NA,NA,true
KCHQWMb2,3kqc8jmjhf51pencp85cgosduim3h1,3z4gs9hpnznoksgh5drsrcbq88g776,KCHQWMb2,2020-0188,2020-06-04,10:45:56,11:32:20,NA,incomplete,26,number,1,0,left,Red_Plus_Dots_4.jpg,Purple_Star_Grid_4.jpg,Blue_Plus_Chess_2.jpg,left,1030.585000058636,true,NA,NA,NA,NA,NA,NA,NA,NA,true
KCHQWMb2,3kqc8jmjhf51pencp85cgosduim3h1,3z4gs9hpnznoksgh5drsrcbq88g776,KCHQWMb2,2020-0188,2020-06-04,10:45:56,11:32:20,NA,incomplete,27,number,1,1,right,Green_Star_Stripes_2.jpg,Purple_Star_Chess_4.jpg,Blue_Circle_Grid_2.jpg,right,956.1150000663474,true,NA,NA,NA,NA,NA,NA,NA,NA,true
KCHQWMb2,3kqc8jmjhf51pencp85cgosduim3h1,3z4gs9hpnznoksgh5drsrcbq88g776,KCHQWMb2,2020-0188,2020-06-04,10:45:56,11:32:20,NA,incomplete,28,number,1,0,left,Purple_Triangle_Stripes_1.jpg,Blue_Plus_Chess_1.jpg,Green_Triangle_Grid_3.jpg,left,1156.5900000277907,true,NA,NA,NA,NA,NA,NA,NA,NA,true
KCHQWMb2,3kqc8jmjhf51pencp85cgosduim3h1,3z4gs9hpnznoksgh5drsrcbq88g776,KCHQWMb2,2020-0188,2020-06-04,10:45:56,11:32:20,NA,incomplete,29,number,1,1,left,Red_Star_Stripes_1.jpg,Green_Plus_Chess_1.jpg,Blue_Star_Dots_3.jpg,left,945.8899999735877,true,NA,NA,NA,NA,NA,NA,NA,NA,true
KCHQWMb2,3kqc8jmjhf51pencp85cgosduim3h1,3z4gs9hpnznoksgh5drsrcbq88g776,KCHQWMb2,2020-0188,2020-06-04,10:45:56,11:32:20,NA,incomplete,30,number,1,0,right,Red_Star_Dots_1.jpg,Blue_Star_Grid_3.jpg,Purple_Triangle_Stripes_1.jpg,right,752.0200000144541,true,NA,NA,NA,NA,NA,NA,NA,NA,true
KCHQWMb2,3kqc8jmjhf51pencp85cgosduim3h1,3z4gs9hpnznoksgh5drsrcbq88g776,KCHQWMb2,2020-0188,2020-06-04,10:45:56,11:32:20,NA,incomplete,31,number,1,1,left,Red_Circle_Grid_2.jpg,Blue_Triangle_Dots_2.jpg,Green_Circle_Chess_4.jpg,left,982.0949999848381,true,NA,NA,NA,NA,NA,NA,NA,NA,true
KCHQWMb2,3kqc8jmjhf51pencp85cgosduim3h1,3z4gs9hpnznoksgh5drsrcbq88g776,KCHQWMb2,2020-0188,2020-06-04,10:45:56,11:32:20,NA,incomplete,32,number,1,1,left,Blue_Plus_Stripes_2.jpg,Green_Star_Grid_2.jpg,Red_Plus_Chess_4.jpg,left,970.2749999705702,true,NA,NA,NA,NA,NA,NA,NA,NA,true
KCHQWMb2,3kqc8jmjhf51pencp85cgosduim3h1,3z4gs9hpnznoksgh5drsrcbq88g776,KCHQWMb2,2020-0188,2020-06-04,10:45:56,11:32:20,NA,incomplete,33,number,1,1,right,Purple_Triangle_Chess_4.jpg,Red_Triangle_Dots_2.jpg,Blue_Star_Grid_4.jpg,right,839.7099999710917,true,NA,NA,NA,NA,NA,NA,NA,NA,true
KCHQWMb2,3kqc8jmjhf51pencp85cgosduim3h1,3z4gs9hpnznoksgh5drsrcbq88g776,KCHQWMb2,2020-0188,2020-06-04,10:45:56,11:32:20,NA,incomplete,34,number,1,1,left,Red_Circle_Chess_2.jpg,Purple_Plus_Grid_2.jpg,Blue_Circle_Dots_1.jpg,left,971.3850000407547,true,NA,NA,NA,NA,NA,NA,NA,NA,true
KCHQWMb2,3kqc8jmjhf51pencp85cgosduim3h1,3z4gs9hpnznoksgh5drsrcbq88g776,KCHQWMb2,2020-0188,2020-06-04,10:45:56,11:32:20,NA,incomplete,35,number,1,1,right,Blue_Triangle_Chess_4.jpg,Green_Triangle_Dots_1.jpg,Red_Plus_Grid_4.jpg,right,852.8750000987202,true,NA,NA,NA,NA,NA,NA,NA,NA,true
KCHQWMb2,3kqc8jmjhf51pencp85cgosduim3h1,3z4gs9hpnznoksgh5drsrcbq88g776,KCHQWMb2,2020-0188,2020-06-04,10:45:56,11:32:20,NA,incomplete,36,number,1,1,right,Red_Star_Stripes_1.jpg,Blue_Star_Grid_3.jpg,Green_Circle_Dots_1.jpg,right,814.0199999324977,true,NA,NA,NA,NA,NA,NA,NA,NA,true
KCHQWMb2,3kqc8jmjhf51pencp85cgosduim3h1,3z4gs9hpnznoksgh5drsrcbq88g776,KCHQWMb2,2020-0188,2020-06-04,10:45:56,11:32:20,NA,incomplete,37,number,1,1,right,Red_Circle_Chess_3.jpg,Green_Circle_Dots_1.jpg,Purple_Plus_Grid_3.jpg,right,792.9799999110401,true,NA,NA,NA,NA,NA,NA,NA,NA,true
KCHQWMb2,3kqc8jmjhf51pencp85cgosduim3h1,3z4gs9hpnznoksgh5drsrcbq88g776,KCHQWMb2,2020-0188,2020-06-04,10:45:56,11:32:20,NA,incomplete,38,number,1,1,left,Red_Circle_Chess_2.jpg,Purple_Plus_Dots_2.jpg,Green_Circle_Stripes_4.jpg,left,784.9150000838563,true,NA,NA,NA,NA,NA,NA,NA,NA,true
KCHQWMb2,3kqc8jmjhf51pencp85cgosduim3h1,3z4gs9hpnznoksgh5drsrcbq88g776,KCHQWMb2,2020-0188,2020-06-04,10:45:56,11:32:20,NA,incomplete,39,number,1,1,right,Green_Circle_Dots_4.jpg,Purple_Circle_Stripes_2.jpg,Red_Triangle_Grid_4.jpg,right,919.0200000302866,true,NA,NA,NA,NA,NA,NA,NA,NA,true
KCHQWMb2,3kqc8jmjhf51pencp85cgosduim3h1,3z4gs9hpnznoksgh5drsrcbq88g776,KCHQWMb2,2020-0188,2020-06-04,10:45:56,11:32:20,NA,incomplete,0,shape,0,0,right,Blue_Plus_Grid_4.jpg,Purple_Triangle_Dots_4.jpg,Red_Plus_Chess_2.jpg,left,1228.720000013709,false,low,NA,NA,NA,NA,NA,NA,NA,false
KCHQWMb2,3kqc8jmjhf51pencp85cgosduim3h1,3z4gs9hpnznoksgh5drsrcbq88g776,KCHQWMb2,2020-0188,2020-06-04,10:45:56,11:32:20,NA,incomplete,1,shape,0,0,right,Purple_Plus_Grid_2.jpg,Blue_Circle_Chess_2.jpg,Red_Plus_Stripes_1.jpg,left,1218.6950000468642,false,low,NA,NA,NA,NA,NA,NA,NA,false
KCHQWMb2,3kqc8jmjhf51pencp85cgosduim3h1,3z4gs9hpnznoksgh5drsrcbq88g776,KCHQWMb2,2020-0188,2020-06-04,10:45:56,11:32:20,NA,incomplete,2,shape,0,1,right,Purple_Triangle_Dots_2.jpg,Blue_Star_Chess_2.jpg,Red_Triangle_Grid_3.jpg,left,1026.9049999769777,false,low,NA,NA,NA,NA,NA,NA,NA,false
KCHQWMb2,3kqc8jmjhf51pencp85cgosduim3h1,3z4gs9hpnznoksgh5drsrcbq88g776,KCHQWMb2,2020-0188,2020-06-04,10:45:56,11:32:20,NA,incomplete,3,shape,0,1,right,Purple_Triangle_Grid_3.jpg,Blue_Circle_Dots_3.jpg,Green_Triangle_Chess_2.jpg,left,965.2200000127777,false,low,NA,NA,NA,NA,NA,NA,NA,false
KCHQWMb2,3kqc8jmjhf51pencp85cgosduim3h1,3z4gs9hpnznoksgh5drsrcbq88g776,KCHQWMb2,2020-0188,2020-06-04,10:45:56,11:32:20,NA,incomplete,4,shape,0,1,right,Blue_Circle_Grid_2.jpg,Green_Plus_Stripes_2.jpg,Purple_Circle_Dots_1.jpg,right,1479.5600000070408,true,low,NA,NA,NA,NA,NA,NA,NA,false
KCHQWMb2,3kqc8jmjhf51pencp85cgosduim3h1,3z4gs9hpnznoksgh5drsrcbq88g776,KCHQWMb2,2020-0188,2020-06-04,10:45:56,11:32:20,NA,incomplete,5,shape,0,1,right,Green_Circle_Grid_2.jpg,Blue_Plus_Stripes_2.jpg,Purple_Circle_Dots_3.jpg,right,839.0450000297278,true,low,NA,NA,NA,NA,NA,NA,NA,false
KCHQWMb2,3kqc8jmjhf51pencp85cgosduim3h1,3z4gs9hpnznoksgh5drsrcbq88g776,KCHQWMb2,2020-0188,2020-06-04,10:45:56,11:32:20,NA,incomplete,6,shape,0,1,left,Green_Circle_Chess_4.jpg,Blue_Circle_Grid_3.jpg,Red_Star_Dots_4.jpg,right,854.2850000085309,false,low,NA,NA,NA,NA,NA,NA,NA,false
KCHQWMb2,3kqc8jmjhf51pencp85cgosduim3h1,3z4gs9hpnznoksgh5drsrcbq88g776,KCHQWMb2,2020-0188,2020-06-04,10:45:56,11:32:20,NA,incomplete,7,shape,0,1,left,Blue_Circle_Chess_3.jpg,Green_Circle_Dots_1.jpg,Red_Triangle_Grid_3.jpg,right,870.7299999659881,false,low,NA,NA,NA,NA,NA,NA,NA,false
KCHQWMb2,3kqc8jmjhf51pencp85cgosduim3h1,3z4gs9hpnznoksgh5drsrcbq88g776,KCHQWMb2,2020-0188,2020-06-04,10:45:56,11:32:20,NA,incomplete,8,shape,0,1,left,Blue_Circle_Grid_3.jpg,Red_Circle_Dots_1.jpg,Green_Star_Stripes_3.jpg,left,777.4649999337271,true,low,NA,NA,NA,NA,NA,NA,NA,false
KCHQWMb2,3kqc8jmjhf51pencp85cgosduim3h1,3z4gs9hpnznoksgh5drsrcbq88g776,KCHQWMb2,2020-0188,2020-06-04,10:45:56,11:32:20,NA,incomplete,9,shape,0,1,left,Green_Triangle_Chess_3.jpg,Purple_Triangle_Dots_4.jpg,Blue_Plus_Grid_3.jpg,left,1086.3450000761077,true,low,NA,NA,NA,NA,NA,NA,NA,false
KCHQWMb2,3kqc8jmjhf51pencp85cgosduim3h1,3z4gs9hpnznoksgh5drsrcbq88g776,KCHQWMb2,2020-0188,2020-06-04,10:45:56,11:32:20,NA,incomplete,10,shape,0,0,left,Blue_Triangle_Grid_4.jpg,Purple_Triangle_Chess_1.jpg,Red_Plus_Stripes_4.jpg,left,1048.2100000372157,true,low,NA,NA,NA,NA,NA,NA,NA,false
KCHQWMb2,3kqc8jmjhf51pencp85cgosduim3h1,3z4gs9hpnznoksgh5drsrcbq88g776,KCHQWMb2,2020-0188,2020-06-04,10:45:56,11:32:20,NA,incomplete,11,shape,0,1,right,Red_Star_Dots_3.jpg,Blue_Circle_Grid_3.jpg,Green_Star_Chess_2.jpg,right,816.4050000486895,true,low,NA,NA,NA,NA,NA,NA,NA,false
KCHQWMb2,3kqc8jmjhf51pencp85cgosduim3h1,3z4gs9hpnznoksgh5drsrcbq88g776,KCHQWMb2,2020-0188,2020-06-04,10:45:56,11:32:20,NA,incomplete,12,shape,0,1,left,Purple_Circle_Stripes_1.jpg,Red_Circle_Chess_3.jpg,Blue_Triangle_Grid_1.jpg,right,1064.7399999434128,false,low,NA,NA,NA,NA,NA,NA,NA,false
KCHQWMb2,3kqc8jmjhf51pencp85cgosduim3h1,3z4gs9hpnznoksgh5drsrcbq88g776,KCHQWMb2,2020-0188,2020-06-04,10:45:56,11:32:20,NA,incomplete,13,shape,0,1,left,Blue_Circle_Grid_2.jpg,Green_Circle_Chess_3.jpg,Purple_Triangle_Dots_2.jpg,right,888.4350000880659,false,low,NA,NA,NA,NA,NA,NA,NA,false
KCHQWMb2,3kqc8jmjhf51pencp85cgosduim3h1,3z4gs9hpnznoksgh5drsrcbq88g776,KCHQWMb2,2020-0188,2020-06-04,10:45:56,11:32:20,NA,incomplete,14,shape,0,1,left,Red_Circle_Dots_4.jpg,Green_Circle_Grid_2.jpg,Blue_Plus_Stripes_4.jpg,right,1051.0800000047311,false,low,NA,NA,NA,NA,NA,NA,NA,false
KCHQWMb2,3kqc8jmjhf51pencp85cgosduim3h1,3z4gs9hpnznoksgh5drsrcbq88g776,KCHQWMb2,2020-0188,2020-06-04,10:45:56,11:32:20,NA,incomplete,15,shape,0,1,right,Green_Triangle_Grid_1.jpg,Red_Star_Chess_1.jpg,Purple_Triangle_Stripes_2.jpg,right,1231.4550000010058,true,low,NA,NA,NA,NA,NA,NA,NA,false
KCHQWMb2,3kqc8jmjhf51pencp85cgosduim3h1,3z4gs9hpnznoksgh5drsrcbq88g776,KCHQWMb2,2020-0188,2020-06-04,10:45:56,11:32:20,NA,incomplete,16,shape,0,1,right,Purple_Star_Stripes_1.jpg,Red_Circle_Chess_1.jpg,Blue_Star_Grid_2.jpg,right,638.2599999196827,true,low,NA,NA,NA,NA,NA,NA,NA,false
KCHQWMb2,3kqc8jmjhf51pencp85cgosduim3h1,3z4gs9hpnznoksgh5drsrcbq88g776,KCHQWMb2,2020-0188,2020-06-04,10:45:56,11:32:20,NA,incomplete,17,shape,0,0,left,Green_Circle_Dots_4.jpg,Purple_Circle_Stripes_1.jpg,Blue_Triangle_Chess_4.jpg,right,759.3500000657514,false,low,NA,NA,NA,NA,NA,NA,NA,false
KCHQWMb2,3kqc8jmjhf51pencp85cgosduim3h1,3z4gs9hpnznoksgh5drsrcbq88g776,KCHQWMb2,2020-0188,2020-06-04,10:45:56,11:32:20,NA,incomplete,18,shape,0,1,left,Blue_Star_Stripes_2.jpg,Purple_Star_Grid_3.jpg,Green_Plus_Dots_2.jpg,left,981.7099999636412,true,low,NA,NA,NA,NA,NA,NA,NA,false
KCHQWMb2,3kqc8jmjhf51pencp85cgosduim3h1,3z4gs9hpnznoksgh5drsrcbq88g776,KCHQWMb2,2020-0188,2020-06-04,10:45:56,11:32:20,NA,incomplete,19,shape,0,1,right,Blue_Circle_Stripes_1.jpg,Red_Triangle_Chess_1.jpg,Green_Circle_Grid_4.jpg,left,1200.6950000068173,false,low,NA,NA,NA,NA,NA,NA,NA,false
KCHQWMb2,3kqc8jmjhf51pencp85cgosduim3h1,3z4gs9hpnznoksgh5drsrcbq88g776,KCHQWMb2,2020-0188,2020-06-04,10:45:56,11:32:20,NA,incomplete,20,shape,0,0,left,Purple_Plus_Stripes_3.jpg,Green_Plus_Grid_2.jpg,Blue_Circle_Chess_3.jpg,right,747.5199999753386,false,low,NA,NA,NA,NA,NA,NA,NA,false
KCHQWMb2,3kqc8jmjhf51pencp85cgosduim3h1,3z4gs9hpnznoksgh5drsrcbq88g776,KCHQWMb2,2020-0188,2020-06-04,10:45:56,11:32:20,NA,incomplete,21,shape,0,1,left,Green_Triangle_Chess_2.jpg,Red_Triangle_Dots_4.jpg,Purple_Plus_Stripes_2.jpg,right,975.5649999715388,false,low,NA,NA,NA,NA,NA,NA,NA,false
KCHQWMb2,3kqc8jmjhf51pencp85cgosduim3h1,3z4gs9hpnznoksgh5drsrcbq88g776,KCHQWMb2,2020-0188,2020-06-04,10:45:56,11:32:20,NA,incomplete,22,shape,0,1,left,Purple_Triangle_Chess_3.jpg,Red_Triangle_Stripes_1.jpg,Green_Plus_Grid_3.jpg,left,788.9800000702962,true,low,NA,NA,NA,NA,NA,NA,NA,false
KCHQWMb2,3kqc8jmjhf51pencp85cgosduim3h1,3z4gs9hpnznoksgh5drsrcbq88g776,KCHQWMb2,2020-0188,2020-06-04,10:45:56,11:32:20,NA,incomplete,23,shape,0,1,right,Green_Plus_Dots_3.jpg,Red_Circle_Grid_3.jpg,Blue_Plus_Stripes_1.jpg,right,901.9700000062585,true,low,NA,NA,NA,NA,NA,NA,NA,false
KCHQWMb2,3kqc8jmjhf51pencp85cgosduim3h1,3z4gs9hpnznoksgh5drsrcbq88g776,KCHQWMb2,2020-0188,2020-06-04,10:45:56,11:32:20,NA,incomplete,24,shape,0,0,right,Green_Plus_Dots_1.jpg,Red_Star_Chess_1.jpg,Purple_Plus_Stripes_2.jpg,right,951.8449999159202,true,low,NA,NA,NA,NA,NA,NA,NA,false
KCHQWMb2,3kqc8jmjhf51pencp85cgosduim3h1,3z4gs9hpnznoksgh5drsrcbq88g776,KCHQWMb2,2020-0188,2020-06-04,10:45:56,11:32:20,NA,incomplete,25,shape,0,1,left,Blue_Plus_Dots_4.jpg,Red_Plus_Stripes_2.jpg,Purple_Circle_Chess_4.jpg,right,745.7200000062585,false,low,NA,NA,NA,NA,NA,NA,NA,false
KCHQWMb2,3kqc8jmjhf51pencp85cgosduim3h1,3z4gs9hpnznoksgh5drsrcbq88g776,KCHQWMb2,2020-0188,2020-06-04,10:45:56,11:32:20,NA,incomplete,26,shape,0,1,right,Purple_Star_Stripes_1.jpg,Blue_Plus_Chess_1.jpg,Red_Star_Grid_4.jpg,left,785.6300000566989,false,low,NA,NA,NA,NA,NA,NA,NA,false
KCHQWMb2,3kqc8jmjhf51pencp85cgosduim3h1,3z4gs9hpnznoksgh5drsrcbq88g776,KCHQWMb2,2020-0188,2020-06-04,10:45:56,11:32:20,NA,incomplete,27,shape,0,1,left,Blue_Star_Stripes_4.jpg,Red_Star_Grid_2.jpg,Green_Plus_Chess_4.jpg,left,1018.4299999382347,true,low,NA,NA,NA,NA,NA,NA,NA,false
KCHQWMb2,3kqc8jmjhf51pencp85cgosduim3h1,3z4gs9hpnznoksgh5drsrcbq88g776,KCHQWMb2,2020-0188,2020-06-04,10:45:56,11:32:20,NA,incomplete,28,shape,0,0,right,Purple_Star_Dots_4.jpg,Green_Plus_Stripes_4.jpg,Red_Star_Grid_3.jpg,right,1020.58999997098,true,low,NA,NA,NA,NA,NA,NA,NA,false
KCHQWMb2,3kqc8jmjhf51pencp85cgosduim3h1,3z4gs9hpnznoksgh5drsrcbq88g776,KCHQWMb2,2020-0188,2020-06-04,10:45:56,11:32:20,NA,incomplete,29,shape,0,0,left,Blue_Plus_Stripes_1.jpg,Green_Plus_Dots_4.jpg,Purple_Star_Grid_1.jpg,right,954.7099999617785,false,low,NA,NA,NA,NA,NA,NA,NA,false
KCHQWMb2,3kqc8jmjhf51pencp85cgosduim3h1,3z4gs9hpnznoksgh5drsrcbq88g776,KCHQWMb2,2020-0188,2020-06-04,10:45:56,11:32:20,NA,incomplete,30,number,1,1,right,Green_Triangle_Stripes_1.jpg,Blue_Triangle_Dots_2.jpg,Red_Circle_Chess_1.jpg,left,1051.355000003241,false,low,NA,NA,NA,NA,NA,NA,NA,false
KCHQWMb2,3kqc8jmjhf51pencp85cgosduim3h1,3z4gs9hpnznoksgh5drsrcbq88g776,KCHQWMb2,2020-0188,2020-06-04,10:45:56,11:32:20,NA,incomplete,31,number,1,1,right,Purple_Circle_Stripes_1.jpg,Green_Circle_Dots_4.jpg,Blue_Triangle_Chess_1.jpg,right,827.6949999853969,true,low,NA,NA,NA,NA,NA,NA,NA,false
KCHQWMb2,3kqc8jmjhf51pencp85cgosduim3h1,3z4gs9hpnznoksgh5drsrcbq88g776,KCHQWMb2,2020-0188,2020-06-04,10:45:56,11:32:20,NA,incomplete,32,number,1,1,left,Green_Star_Chess_1.jpg,Red_Triangle_Dots_1.jpg,Blue_Star_Stripes_2.jpg,left,1507.1450000395998,true,low,NA,NA,NA,NA,NA,NA,NA,false
KCHQWMb2,3kqc8jmjhf51pencp85cgosduim3h1,3z4gs9hpnznoksgh5drsrcbq88g776,KCHQWMb2,2020-0188,2020-06-04,10:45:56,11:32:20,NA,incomplete,33,number,1,1,right,Red_Plus_Dots_2.jpg,Green_Plus_Chess_1.jpg,Purple_Circle_Stripes_2.jpg,right,811.5449999459088,true,low,NA,NA,NA,NA,NA,NA,NA,false
KCHQWMb2,3kqc8jmjhf51pencp85cgosduim3h1,3z4gs9hpnznoksgh5drsrcbq88g776,KCHQWMb2,2020-0188,2020-06-04,10:45:56,11:32:20,NA,incomplete,34,number,1,0,right,Green_Star_Grid_1.jpg,Blue_Star_Dots_3.jpg,Red_Plus_Stripes_1.jpg,right,781.5049999626353,true,low,NA,NA,NA,NA,NA,NA,NA,false
KCHQWMb2,3kqc8jmjhf51pencp85cgosduim3h1,3z4gs9hpnznoksgh5drsrcbq88g776,KCHQWMb2,2020-0188,2020-06-04,10:45:56,11:32:20,NA,incomplete,35,number,1,1,right,Green_Plus_Grid_2.jpg,Red_Plus_Chess_4.jpg,Purple_Triangle_Stripes_2.jpg,left,1275.0249999808148,false,low,NA,NA,NA,NA,NA,NA,NA,false
KCHQWMb2,3kqc8jmjhf51pencp85cgosduim3h1,3z4gs9hpnznoksgh5drsrcbq88g776,KCHQWMb2,2020-0188,2020-06-04,10:45:56,11:32:20,NA,incomplete,36,number,1,0,right,Purple_Star_Chess_3.jpg,Red_Star_Stripes_4.jpg,Green_Plus_Grid_3.jpg,right,795.3449999913573,true,low,NA,NA,NA,NA,NA,NA,NA,false
KCHQWMb2,3kqc8jmjhf51pencp85cgosduim3h1,3z4gs9hpnznoksgh5drsrcbq88g776,KCHQWMb2,2020-0188,2020-06-04,10:45:56,11:32:20,NA,incomplete,37,number,1,1,right,Purple_Circle_Chess_3.jpg,Red_Circle_Grid_4.jpg,Blue_Triangle_Dots_3.jpg,right,954.7000000020489,true,low,NA,NA,NA,NA,NA,NA,NA,false
KCHQWMb2,3kqc8jmjhf51pencp85cgosduim3h1,3z4gs9hpnznoksgh5drsrcbq88g776,KCHQWMb2,2020-0188,2020-06-04,10:45:56,11:32:20,NA,incomplete,38,number,1,1,right,Red_Plus_Dots_3.jpg,Purple_Plus_Grid_4.jpg,Blue_Triangle_Chess_3.jpg,right,787.8900000359863,true,low,NA,NA,NA,NA,NA,NA,NA,false
KCHQWMb2,3kqc8jmjhf51pencp85cgosduim3h1,3z4gs9hpnznoksgh5drsrcbq88g776,KCHQWMb2,2020-0188,2020-06-04,10:45:56,11:32:20,NA,incomplete,39,number,1,1,right,Purple_Circle_Chess_4.jpg,Blue_Circle_Grid_1.jpg,Green_Triangle_Dots_4.jpg,left,774.1999999852851,false,low,NA,NA,NA,NA,NA,NA,NA,false
KCHQWMb2,3kqc8jmjhf51pencp85cgosduim3h1,3z4gs9hpnznoksgh5drsrcbq88g776,KCHQWMb2,2020-0188,2020-06-04,10:45:56,11:32:20,NA,incomplete,40,number,1,1,left,Purple_Star_Dots_4.jpg,Red_Plus_Stripes_4.jpg,Green_Star_Chess_1.jpg,left,677.1650000009686,true,low,NA,NA,NA,NA,NA,NA,NA,false
KCHQWMb2,3kqc8jmjhf51pencp85cgosduim3h1,3z4gs9hpnznoksgh5drsrcbq88g776,KCHQWMb2,2020-0188,2020-06-04,10:45:56,11:32:20,NA,incomplete,41,number,1,1,left,Blue_Star_Grid_4.jpg,Purple_Circle_Dots_4.jpg,Green_Star_Chess_2.jpg,left,1062.2299999231473,true,low,NA,NA,NA,NA,NA,NA,NA,false
KCHQWMb2,3kqc8jmjhf51pencp85cgosduim3h1,3z4gs9hpnznoksgh5drsrcbq88g776,KCHQWMb2,2020-0188,2020-06-04,10:45:56,11:32:20,NA,incomplete,42,number,1,0,left,Red_Circle_Stripes_2.jpg,Green_Plus_Grid_2.jpg,Blue_Circle_Dots_3.jpg,left,1189.3400000408292,true,low,NA,NA,NA,NA,NA,NA,NA,false
KCHQWMb2,3kqc8jmjhf51pencp85cgosduim3h1,3z4gs9hpnznoksgh5drsrcbq88g776,KCHQWMb2,2020-0188,2020-06-04,10:45:56,11:32:20,NA,incomplete,43,number,1,0,right,Purple_Triangle_Grid_4.jpg,Green_Triangle_Chess_1.jpg,Red_Star_Dots_4.jpg,right,756.5150000154972,true,low,NA,NA,NA,NA,NA,NA,NA,false
KCHQWMb2,3kqc8jmjhf51pencp85cgosduim3h1,3z4gs9hpnznoksgh5drsrcbq88g776,KCHQWMb2,2020-0188,2020-06-04,10:45:56,11:32:20,NA,incomplete,44,number,1,1,right,Red_Triangle_Grid_1.jpg,Blue_Triangle_Stripes_4.jpg,Purple_Circle_Dots_1.jpg,left,1179.72999997437,false,low,NA,NA,NA,NA,NA,NA,NA,false
KCHQWMb2,3kqc8jmjhf51pencp85cgosduim3h1,3z4gs9hpnznoksgh5drsrcbq88g776,KCHQWMb2,2020-0188,2020-06-04,10:45:56,11:32:20,NA,incomplete,45,number,1,1,right,Purple_Star_Stripes_3.jpg,Green_Star_Grid_1.jpg,Red_Triangle_Chess_3.jpg,right,934.8100000061095,true,low,NA,NA,NA,NA,NA,NA,NA,false
KCHQWMb2,3kqc8jmjhf51pencp85cgosduim3h1,3z4gs9hpnznoksgh5drsrcbq88g776,KCHQWMb2,2020-0188,2020-06-04,10:45:56,11:32:20,NA,incomplete,46,number,1,1,left,Blue_Circle_Dots_4.jpg,Green_Plus_Grid_4.jpg,Red_Circle_Stripes_2.jpg,left,723.450000048615,true,low,NA,NA,NA,NA,NA,NA,NA,false
KCHQWMb2,3kqc8jmjhf51pencp85cgosduim3h1,3z4gs9hpnznoksgh5drsrcbq88g776,KCHQWMb2,2020-0188,2020-06-04,10:45:56,11:32:20,NA,incomplete,47,number,1,1,left,Blue_Star_Stripes_3.jpg,Purple_Plus_Chess_3.jpg,Green_Star_Dots_2.jpg,left,1249.599999981001,true,low,NA,NA,NA,NA,NA,NA,NA,false
KCHQWMb2,3kqc8jmjhf51pencp85cgosduim3h1,3z4gs9hpnznoksgh5drsrcbq88g776,KCHQWMb2,2020-0188,2020-06-04,10:45:56,11:32:20,NA,incomplete,48,number,1,1,right,Purple_Circle_Stripes_1.jpg,Green_Circle_Grid_4.jpg,Blue_Triangle_Chess_1.jpg,right,1039.0549999428913,true,low,NA,NA,NA,NA,NA,NA,NA,false
KCHQWMb2,3kqc8jmjhf51pencp85cgosduim3h1,3z4gs9hpnznoksgh5drsrcbq88g776,KCHQWMb2,2020-0188,2020-06-04,10:45:56,11:32:20,NA,incomplete,49,number,1,1,right,Green_Circle_Grid_1.jpg,Blue_Circle_Chess_4.jpg,Purple_Star_Dots_1.jpg,right,892.4250000854954,true,low,NA,NA,NA,NA,NA,NA,NA,false
KCHQWMb2,3kqc8jmjhf51pencp85cgosduim3h1,3z4gs9hpnznoksgh5drsrcbq88g776,KCHQWMb2,2020-0188,2020-06-04,10:45:56,11:32:20,NA,incomplete,50,number,1,1,left,Purple_Triangle_Stripes_3.jpg,Green_Plus_Chess_3.jpg,Red_Triangle_Grid_4.jpg,left,1160.425000009127,true,low,NA,NA,NA,NA,NA,NA,NA,false
KCHQWMb2,3kqc8jmjhf51pencp85cgosduim3h1,3z4gs9hpnznoksgh5drsrcbq88g776,KCHQWMb2,2020-0188,2020-06-04,10:45:56,11:32:20,NA,incomplete,51,number,1,1,left,Green_Circle_Chess_3.jpg,Purple_Star_Stripes_3.jpg,Blue_Circle_Dots_4.jpg,left,1008.1149999750778,true,low,NA,NA,NA,NA,NA,NA,NA,false
KCHQWMb2,3kqc8jmjhf51pencp85cgosduim3h1,3z4gs9hpnznoksgh5drsrcbq88g776,KCHQWMb2,2020-0188,2020-06-04,10:45:56,11:32:20,NA,incomplete,52,number,1,1,left,Green_Plus_Dots_2.jpg,Red_Triangle_Stripes_2.jpg,Purple_Plus_Grid_3.jpg,left,836.5249999333173,true,low,NA,NA,NA,NA,NA,NA,NA,false
KCHQWMb2,3kqc8jmjhf51pencp85cgosduim3h1,3z4gs9hpnznoksgh5drsrcbq88g776,KCHQWMb2,2020-0188,2020-06-04,10:45:56,11:32:20,NA,incomplete,53,number,1,1,left,Purple_Triangle_Stripes_3.jpg,Red_Plus_Dots_3.jpg,Blue_Triangle_Chess_4.jpg,left,832.094999961555,true,low,NA,NA,NA,NA,NA,NA,NA,false
KCHQWMb2,3kqc8jmjhf51pencp85cgosduim3h1,3z4gs9hpnznoksgh5drsrcbq88g776,KCHQWMb2,2020-0188,2020-06-04,10:45:56,11:32:20,NA,incomplete,54,number,1,0,right,Purple_Star_Stripes_1.jpg,Red_Star_Grid_4.jpg,Blue_Triangle_Dots_1.jpg,right,783.2850000122562,true,low,NA,NA,NA,NA,NA,NA,NA,false
KCHQWMb2,3kqc8jmjhf51pencp85cgosduim3h1,3z4gs9hpnznoksgh5drsrcbq88g776,KCHQWMb2,2020-0188,2020-06-04,10:45:56,11:32:20,NA,incomplete,55,number,1,0,left,Green_Triangle_Dots_3.jpg,Purple_Star_Grid_3.jpg,Red_Triangle_Chess_2.jpg,right,767.2050000401214,false,low,NA,NA,NA,NA,NA,NA,NA,false
KCHQWMb2,3kqc8jmjhf51pencp85cgosduim3h1,3z4gs9hpnznoksgh5drsrcbq88g776,KCHQWMb2,2020-0188,2020-06-04,10:45:56,11:32:20,NA,incomplete,56,number,1,1,left,Blue_Plus_Stripes_3.jpg,Red_Star_Chess_3.jpg,Purple_Plus_Dots_1.jpg,left,778.6749999504536,true,low,NA,NA,NA,NA,NA,NA,NA,false
KCHQWMb2,3kqc8jmjhf51pencp85cgosduim3h1,3z4gs9hpnznoksgh5drsrcbq88g776,KCHQWMb2,2020-0188,2020-06-04,10:45:56,11:32:20,NA,incomplete,57,number,1,0,right,Purple_Circle_Dots_3.jpg,Blue_Circle_Grid_1.jpg,Red_Star_Stripes_3.jpg,left,1386.7999999783933,false,low,NA,NA,NA,NA,NA,NA,NA,false
KCHQWMb2,3kqc8jmjhf51pencp85cgosduim3h1,3z4gs9hpnznoksgh5drsrcbq88g776,KCHQWMb2,2020-0188,2020-06-04,10:45:56,11:32:20,NA,incomplete,58,number,1,1,right,Red_Circle_Stripes_2.jpg,Blue_Circle_Chess_4.jpg,Green_Plus_Grid_2.jpg,right,855.31000001356,true,low,NA,NA,NA,NA,NA,NA,NA,false
KCHQWMb2,3kqc8jmjhf51pencp85cgosduim3h1,3z4gs9hpnznoksgh5drsrcbq88g776,KCHQWMb2,2020-0188,2020-06-04,10:45:56,11:32:20,NA,incomplete,59,number,1,1,left,Green_Circle_Stripes_2.jpg,Blue_Star_Chess_2.jpg,Red_Circle_Grid_3.jpg,left,1181.6899999976158,true,low,NA,NA,NA,NA,NA,NA,NA,false
KCHQWMb2,3kqc8jmjhf51pencp85cgosduim3h1,3z4gs9hpnznoksgh5drsrcbq88g776,KCHQWMb2,2020-0188,2020-06-04,10:45:56,11:32:20,NA,incomplete,60,shape,0,1,left,Blue_Star_Stripes_1.jpg,Red_Star_Grid_3.jpg,Purple_Plus_Chess_1.jpg,left,962.775000021793,true,low,NA,NA,NA,NA,NA,NA,NA,false
KCHQWMb2,3kqc8jmjhf51pencp85cgosduim3h1,3z4gs9hpnznoksgh5drsrcbq88g776,KCHQWMb2,2020-0188,2020-06-04,10:45:56,11:32:20,NA,incomplete,61,shape,0,1,left,Red_Star_Dots_3.jpg,Purple_Star_Chess_2.jpg,Blue_Circle_Grid_3.jpg,right,983.1349999876693,false,low,NA,NA,NA,NA,NA,NA,NA,false
KCHQWMb2,3kqc8jmjhf51pencp85cgosduim3h1,3z4gs9hpnznoksgh5drsrcbq88g776,KCHQWMb2,2020-0188,2020-06-04,10:45:56,11:32:20,NA,incomplete,62,shape,0,1,left,Purple_Star_Stripes_1.jpg,Blue_Star_Grid_4.jpg,Green_Triangle_Dots_1.jpg,right,839.4800000824034,false,low,NA,NA,NA,NA,NA,NA,NA,false
KCHQWMb2,3kqc8jmjhf51pencp85cgosduim3h1,3z4gs9hpnznoksgh5drsrcbq88g776,KCHQWMb2,2020-0188,2020-06-04,10:45:56,11:32:20,NA,incomplete,63,shape,0,1,left,Blue_Star_Chess_2.jpg,Purple_Star_Grid_3.jpg,Red_Circle_Stripes_2.jpg,right,1137.3950000852346,false,low,NA,NA,NA,NA,NA,NA,NA,false
KCHQWMb2,3kqc8jmjhf51pencp85cgosduim3h1,3z4gs9hpnznoksgh5drsrcbq88g776,KCHQWMb2,2020-0188,2020-06-04,10:45:56,11:32:20,NA,incomplete,64,shape,0,0,right,Green_Plus_Grid_2.jpg,Red_Circle_Chess_2.jpg,Purple_Plus_Stripes_1.jpg,left,791.9449999462813,false,low,NA,NA,NA,NA,NA,NA,NA,false
KCHQWMb2,3kqc8jmjhf51pencp85cgosduim3h1,3z4gs9hpnznoksgh5drsrcbq88g776,KCHQWMb2,2020-0188,2020-06-04,10:45:56,11:32:20,NA,incomplete,65,shape,0,1,left,Purple_Triangle_Stripes_1.jpg,Blue_Triangle_Dots_3.jpg,Green_Plus_Chess_1.jpg,left,790.3800000203773,true,low,NA,NA,NA,NA,NA,NA,NA,false
KCHQWMb2,3kqc8jmjhf51pencp85cgosduim3h1,3z4gs9hpnznoksgh5drsrcbq88g776,KCHQWMb2,2020-0188,2020-06-04,10:45:56,11:32:20,NA,incomplete,66,shape,0,1,right,Blue_Plus_Chess_1.jpg,Purple_Circle_Dots_1.jpg,Green_Plus_Stripes_3.jpg,right,850.0099999364465,true,low,NA,NA,NA,NA,NA,NA,NA,false
KCHQWMb2,3kqc8jmjhf51pencp85cgosduim3h1,3z4gs9hpnznoksgh5drsrcbq88g776,KCHQWMb2,2020-0188,2020-06-04,10:45:56,11:32:20,NA,incomplete,67,shape,0,0,right,Red_Triangle_Stripes_3.jpg,Blue_Star_Chess_3.jpg,Purple_Triangle_Dots_2.jpg,right,848.424999974668,true,low,NA,NA,NA,NA,NA,NA,NA,false
KCHQWMb2,3kqc8jmjhf51pencp85cgosduim3h1,3z4gs9hpnznoksgh5drsrcbq88g776,KCHQWMb2,2020-0188,2020-06-04,10:45:56,11:32:20,NA,incomplete,68,shape,0,1,left,Green_Plus_Grid_1.jpg,Blue_Plus_Dots_2.jpg,Red_Star_Stripes_1.jpg,left,572.1549999434501,true,low,NA,NA,NA,NA,NA,NA,NA,false
KCHQWMb2,3kqc8jmjhf51pencp85cgosduim3h1,3z4gs9hpnznoksgh5drsrcbq88g776,KCHQWMb2,2020-0188,2020-06-04,10:45:56,11:32:20,NA,incomplete,69,shape,0,0,left,Purple_Triangle_Stripes_2.jpg,Green_Triangle_Grid_3.jpg,Blue_Plus_Dots_2.jpg,left,678.955000010319,true,low,NA,NA,NA,NA,NA,NA,NA,false
KCHQWMb2,3kqc8jmjhf51pencp85cgosduim3h1,3z4gs9hpnznoksgh5drsrcbq88g776,KCHQWMb2,2020-0188,2020-06-04,10:45:56,11:32:20,NA,incomplete,70,shape,0,1,right,Blue_Triangle_Grid_1.jpg,Purple_Plus_Stripes_1.jpg,Red_Triangle_Dots_3.jpg,right,602.7600000379607,true,low,NA,NA,NA,NA,NA,NA,NA,false
KCHQWMb2,3kqc8jmjhf51pencp85cgosduim3h1,3z4gs9hpnznoksgh5drsrcbq88g776,KCHQWMb2,2020-0188,2020-06-04,10:45:56,11:32:20,NA,incomplete,71,shape,0,1,left,Green_Plus_Chess_1.jpg,Red_Plus_Stripes_4.jpg,Blue_Star_Dots_1.jpg,left,662.9549999488518,true,low,NA,NA,NA,NA,NA,NA,NA,false
KCHQWMb2,3kqc8jmjhf51pencp85cgosduim3h1,3z4gs9hpnznoksgh5drsrcbq88g776,KCHQWMb2,2020-0188,2020-06-04,10:45:56,11:32:20,NA,incomplete,72,shape,0,1,right,Purple_Triangle_Grid_1.jpg,Green_Plus_Chess_1.jpg,Blue_Triangle_Stripes_2.jpg,right,601.8800000892952,true,low,NA,NA,NA,NA,NA,NA,NA,false
KCHQWMb2,3kqc8jmjhf51pencp85cgosduim3h1,3z4gs9hpnznoksgh5drsrcbq88g776,KCHQWMb2,2020-0188,2020-06-04,10:45:56,11:32:20,NA,incomplete,73,shape,0,1,left,Purple_Star_Grid_3.jpg,Blue_Star_Stripes_4.jpg,Red_Plus_Dots_3.jpg,left,690.3999999631196,true,low,NA,NA,NA,NA,NA,NA,NA,false
KCHQWMb2,3kqc8jmjhf51pencp85cgosduim3h1,3z4gs9hpnznoksgh5drsrcbq88g776,KCHQWMb2,2020-0188,2020-06-04,10:45:56,11:32:20,NA,incomplete,74,shape,0,1,left,Blue_Plus_Chess_2.jpg,Red_Plus_Grid_4.jpg,Purple_Triangle_Stripes_2.jpg,left,637.5950000947341,true,low,NA,NA,NA,NA,NA,NA,NA,false
KCHQWMb2,3kqc8jmjhf51pencp85cgosduim3h1,3z4gs9hpnznoksgh5drsrcbq88g776,KCHQWMb2,2020-0188,2020-06-04,10:45:56,11:32:20,NA,incomplete,75,shape,0,1,right,Green_Circle_Dots_2.jpg,Red_Star_Stripes_2.jpg,Blue_Circle_Chess_3.jpg,right,790.6449999427423,true,low,NA,NA,NA,NA,NA,NA,NA,false
KCHQWMb2,3kqc8jmjhf51pencp85cgosduim3h1,3z4gs9hpnznoksgh5drsrcbq88g776,KCHQWMb2,2020-0188,2020-06-04,10:45:56,11:32:20,NA,incomplete,76,shape,0,1,right,Purple_Triangle_Grid_1.jpg,Green_Circle_Chess_1.jpg,Blue_Triangle_Stripes_3.jpg,right,730.6550000794232,true,low,NA,NA,NA,NA,NA,NA,NA,false
KCHQWMb2,3kqc8jmjhf51pencp85cgosduim3h1,3z4gs9hpnznoksgh5drsrcbq88g776,KCHQWMb2,2020-0188,2020-06-04,10:45:56,11:32:20,NA,incomplete,77,shape,0,0,right,Red_Circle_Dots_3.jpg,Purple_Plus_Chess_3.jpg,Blue_Circle_Stripes_2.jpg,right,627.500000060536,true,low,NA,NA,NA,NA,NA,NA,NA,false
KCHQWMb2,3kqc8jmjhf51pencp85cgosduim3h1,3z4gs9hpnznoksgh5drsrcbq88g776,KCHQWMb2,2020-0188,2020-06-04,10:45:56,11:32:20,NA,incomplete,78,shape,0,1,right,Red_Circle_Chess_1.jpg,Purple_Plus_Grid_1.jpg,Green_Circle_Dots_4.jpg,right,539.7050000028685,true,low,NA,NA,NA,NA,NA,NA,NA,false
KCHQWMb2,3kqc8jmjhf51pencp85cgosduim3h1,3z4gs9hpnznoksgh5drsrcbq88g776,KCHQWMb2,2020-0188,2020-06-04,10:45:56,11:32:20,NA,incomplete,79,shape,0,1,left,Blue_Star_Stripes_2.jpg,Purple_Star_Dots_3.jpg,Red_Triangle_Chess_2.jpg,right,515.0650000432506,false,low,NA,NA,NA,NA,NA,NA,NA,false
KCHQWMb2,3kqc8jmjhf51pencp85cgosduim3h1,3z4gs9hpnznoksgh5drsrcbq88g776,KCHQWMb2,2020-0188,2020-06-04,10:45:56,11:32:20,NA,incomplete,80,shape,0,1,right,Purple_Plus_Grid_3.jpg,Red_Circle_Stripes_3.jpg,Blue_Plus_Chess_2.jpg,left,573.24499997776,false,low,NA,NA,NA,NA,NA,NA,NA,false
KCHQWMb2,3kqc8jmjhf51pencp85cgosduim3h1,3z4gs9hpnznoksgh5drsrcbq88g776,KCHQWMb2,2020-0188,2020-06-04,10:45:56,11:32:20,NA,incomplete,81,shape,0,1,left,Green_Plus_Chess_4.jpg,Red_Plus_Stripes_2.jpg,Blue_Triangle_Grid_4.jpg,left,706.7749999696389,true,low,NA,NA,NA,NA,NA,NA,NA,false
KCHQWMb2,3kqc8jmjhf51pencp85cgosduim3h1,3z4gs9hpnznoksgh5drsrcbq88g776,KCHQWMb2,2020-0188,2020-06-04,10:45:56,11:32:20,NA,incomplete,82,shape,0,1,right,Purple_Plus_Stripes_2.jpg,Blue_Circle_Chess_2.jpg,Green_Plus_Dots_4.jpg,left,872.4049999145791,false,low,NA,NA,NA,NA,NA,NA,NA,false
KCHQWMb2,3kqc8jmjhf51pencp85cgosduim3h1,3z4gs9hpnznoksgh5drsrcbq88g776,KCHQWMb2,2020-0188,2020-06-04,10:45:56,11:32:20,NA,incomplete,83,shape,0,1,left,Blue_Triangle_Stripes_1.jpg,Purple_Triangle_Dots_4.jpg,Green_Circle_Chess_1.jpg,left,694.3250000476837,true,low,NA,NA,NA,NA,NA,NA,NA,false
KCHQWMb2,3kqc8jmjhf51pencp85cgosduim3h1,3z4gs9hpnznoksgh5drsrcbq88g776,KCHQWMb2,2020-0188,2020-06-04,10:45:56,11:32:20,NA,incomplete,84,shape,0,0,right,Blue_Plus_Stripes_1.jpg,Purple_Triangle_Chess_1.jpg,Red_Plus_Dots_2.jpg,right,630.2050000522286,true,low,NA,NA,NA,NA,NA,NA,NA,false
KCHQWMb2,3kqc8jmjhf51pencp85cgosduim3h1,3z4gs9hpnznoksgh5drsrcbq88g776,KCHQWMb2,2020-0188,2020-06-04,10:45:56,11:32:20,NA,incomplete,85,shape,0,0,left,Purple_Circle_Stripes_1.jpg,Blue_Circle_Chess_2.jpg,Red_Star_Grid_1.jpg,left,557.7500000363216,true,low,NA,NA,NA,NA,NA,NA,NA,false
KCHQWMb2,3kqc8jmjhf51pencp85cgosduim3h1,3z4gs9hpnznoksgh5drsrcbq88g776,KCHQWMb2,2020-0188,2020-06-04,10:45:56,11:32:20,NA,incomplete,86,shape,0,1,left,Blue_Circle_Dots_4.jpg,Red_Circle_Stripes_1.jpg,Purple_Plus_Grid_4.jpg,right,777.2150000091642,false,low,NA,NA,NA,NA,NA,NA,NA,false
KCHQWMb2,3kqc8jmjhf51pencp85cgosduim3h1,3z4gs9hpnznoksgh5drsrcbq88g776,KCHQWMb2,2020-0188,2020-06-04,10:45:56,11:32:20,NA,incomplete,87,shape,0,1,right,Purple_Circle_Chess_2.jpg,Red_Triangle_Dots_2.jpg,Blue_Circle_Stripes_1.jpg,right,786.1450000200421,true,low,NA,NA,NA,NA,NA,NA,NA,false
KCHQWMb2,3kqc8jmjhf51pencp85cgosduim3h1,3z4gs9hpnznoksgh5drsrcbq88g776,KCHQWMb2,2020-0188,2020-06-04,10:45:56,11:32:20,NA,incomplete,88,shape,0,1,left,Blue_Plus_Stripes_1.jpg,Purple_Plus_Chess_4.jpg,Red_Triangle_Grid_1.jpg,right,955.9550000121817,false,low,NA,NA,NA,NA,NA,NA,NA,false
KCHQWMb2,3kqc8jmjhf51pencp85cgosduim3h1,3z4gs9hpnznoksgh5drsrcbq88g776,KCHQWMb2,2020-0188,2020-06-04,10:45:56,11:32:20,NA,incomplete,89,shape,0,1,right,Red_Triangle_Chess_3.jpg,Green_Star_Dots_3.jpg,Purple_Triangle_Grid_4.jpg,right,823.3949999557808,true,low,NA,NA,NA,NA,NA,NA,NA,false
KCHQWMb2,3kqc8jmjhf51pencp85cgosduim3h1,3z4gs9hpnznoksgh5drsrcbq88g776,KCHQWMb2,2020-0188,2020-06-04,10:45:56,11:32:20,NA,incomplete,90,number,1,1,right,Blue_Circle_Grid_3.jpg,Red_Circle_Stripes_2.jpg,Purple_Star_Dots_3.jpg,left,621.2749999249354,false,low,NA,NA,NA,NA,NA,NA,NA,false
KCHQWMb2,3kqc8jmjhf51pencp85cgosduim3h1,3z4gs9hpnznoksgh5drsrcbq88g776,KCHQWMb2,2020-0188,2020-06-04,10:45:56,11:32:20,NA,incomplete,91,number,1,1,right,Green_Circle_Grid_4.jpg,Red_Circle_Chess_2.jpg,Blue_Triangle_Stripes_4.jpg,right,653.070000000298,true,low,NA,NA,NA,NA,NA,NA,NA,false
KCHQWMb2,3kqc8jmjhf51pencp85cgosduim3h1,3z4gs9hpnznoksgh5drsrcbq88g776,KCHQWMb2,2020-0188,2020-06-04,10:45:56,11:32:20,NA,incomplete,92,number,1,1,right,Green_Star_Grid_3.jpg,Purple_Star_Stripes_1.jpg,Blue_Circle_Dots_3.jpg,right,926.9550000317395,true,low,NA,NA,NA,NA,NA,NA,NA,false
KCHQWMb2,3kqc8jmjhf51pencp85cgosduim3h1,3z4gs9hpnznoksgh5drsrcbq88g776,KCHQWMb2,2020-0188,2020-06-04,10:45:56,11:32:20,NA,incomplete,93,number,1,1,left,Green_Plus_Dots_1.jpg,Blue_Star_Stripes_1.jpg,Purple_Plus_Grid_4.jpg,right,792.0099999755621,false,low,NA,NA,NA,NA,NA,NA,NA,false
KCHQWMb2,3kqc8jmjhf51pencp85cgosduim3h1,3z4gs9hpnznoksgh5drsrcbq88g776,KCHQWMb2,2020-0188,2020-06-04,10:45:56,11:32:20,NA,incomplete,94,number,1,1,right,Purple_Star_Stripes_3.jpg,Blue_Star_Dots_2.jpg,Green_Circle_Grid_3.jpg,right,829.8649999778718,true,low,NA,NA,NA,NA,NA,NA,NA,false
KCHQWMb2,3kqc8jmjhf51pencp85cgosduim3h1,3z4gs9hpnznoksgh5drsrcbq88g776,KCHQWMb2,2020-0188,2020-06-04,10:45:56,11:32:20,NA,incomplete,95,number,1,1,left,Red_Star_Grid_2.jpg,Purple_Circle_Dots_2.jpg,Blue_Star_Chess_4.jpg,right,711.9999999413267,false,low,NA,NA,NA,NA,NA,NA,NA,false
KCHQWMb2,3kqc8jmjhf51pencp85cgosduim3h1,3z4gs9hpnznoksgh5drsrcbq88g776,KCHQWMb2,2020-0188,2020-06-04,10:45:56,11:32:20,NA,incomplete,96,number,1,1,left,Blue_Star_Dots_3.jpg,Purple_Triangle_Chess_3.jpg,Green_Star_Stripes_1.jpg,right,664.8650000570342,false,low,NA,NA,NA,NA,NA,NA,NA,false
KCHQWMb2,3kqc8jmjhf51pencp85cgosduim3h1,3z4gs9hpnznoksgh5drsrcbq88g776,KCHQWMb2,2020-0188,2020-06-04,10:45:56,11:32:20,NA,incomplete,97,number,1,1,left,Blue_Plus_Stripes_3.jpg,Red_Star_Dots_3.jpg,Purple_Plus_Grid_2.jpg,right,1075.650000013411,false,low,NA,NA,NA,NA,NA,NA,NA,false
KCHQWMb2,3kqc8jmjhf51pencp85cgosduim3h1,3z4gs9hpnznoksgh5drsrcbq88g776,KCHQWMb2,2020-0188,2020-06-04,10:45:56,11:32:20,NA,incomplete,98,number,1,1,right,Blue_Circle_Dots_4.jpg,Green_Circle_Chess_1.jpg,Red_Plus_Grid_4.jpg,left,742.8400000790134,false,low,NA,NA,NA,NA,NA,NA,NA,false
KCHQWMb2,3kqc8jmjhf51pencp85cgosduim3h1,3z4gs9hpnznoksgh5drsrcbq88g776,KCHQWMb2,2020-0188,2020-06-04,10:45:56,11:32:20,NA,incomplete,99,number,1,1,right,Purple_Triangle_Chess_4.jpg,Green_Triangle_Grid_1.jpg,Blue_Plus_Stripes_4.jpg,right,931.6950000356883,true,low,NA,NA,NA,NA,NA,NA,NA,false
KCHQWMb2,3kqc8jmjhf51pencp85cgosduim3h1,3z4gs9hpnznoksgh5drsrcbq88g776,KCHQWMb2,2020-0188,2020-06-04,10:45:56,11:32:20,NA,incomplete,100,number,1,1,right,Green_Circle_Grid_2.jpg,Purple_Circle_Chess_4.jpg,Red_Star_Dots_2.jpg,left,595.3100000042468,false,low,NA,NA,NA,NA,NA,NA,NA,false
KCHQWMb2,3kqc8jmjhf51pencp85cgosduim3h1,3z4gs9hpnznoksgh5drsrcbq88g776,KCHQWMb2,2020-0188,2020-06-04,10:45:56,11:32:20,NA,incomplete,101,number,1,1,left,Blue_Star_Grid_1.jpg,Purple_Plus_Dots_1.jpg,Green_Star_Chess_2.jpg,right,626.274999929592,false,low,NA,NA,NA,NA,NA,NA,NA,false
KCHQWMb2,3kqc8jmjhf51pencp85cgosduim3h1,3z4gs9hpnznoksgh5drsrcbq88g776,KCHQWMb2,2020-0188,2020-06-04,10:45:56,11:32:20,NA,incomplete,102,number,1,1,left,Purple_Star_Dots_2.jpg,Blue_Circle_Grid_2.jpg,Red_Star_Chess_1.jpg,left,631.7600000184029,true,low,NA,NA,NA,NA,NA,NA,NA,false
KCHQWMb2,3kqc8jmjhf51pencp85cgosduim3h1,3z4gs9hpnznoksgh5drsrcbq88g776,KCHQWMb2,2020-0188,2020-06-04,10:45:56,11:32:20,NA,incomplete,103,number,1,0,right,Blue_Plus_Chess_2.jpg,Green_Plus_Dots_4.jpg,Purple_Triangle_Stripes_2.jpg,left,603.4650000510737,false,low,NA,NA,NA,NA,NA,NA,NA,false
KCHQWMb2,3kqc8jmjhf51pencp85cgosduim3h1,3z4gs9hpnznoksgh5drsrcbq88g776,KCHQWMb2,2020-0188,2020-06-04,10:45:56,11:32:20,NA,incomplete,104,number,1,1,right,Green_Plus_Dots_4.jpg,Blue_Plus_Stripes_3.jpg,Purple_Star_Grid_4.jpg,left,518.0199999595061,false,low,NA,NA,NA,NA,NA,NA,NA,false
KCHQWMb2,3kqc8jmjhf51pencp85cgosduim3h1,3z4gs9hpnznoksgh5drsrcbq88g776,KCHQWMb2,2020-0188,2020-06-04,10:45:56,11:32:20,NA,incomplete,105,number,1,1,right,Green_Plus_Dots_2.jpg,Purple_Plus_Stripes_3.jpg,Red_Star_Chess_2.jpg,left,753.4899999154732,false,low,NA,NA,NA,NA,NA,NA,NA,false
KCHQWMb2,3kqc8jmjhf51pencp85cgosduim3h1,3z4gs9hpnznoksgh5drsrcbq88g776,KCHQWMb2,2020-0188,2020-06-04,10:45:56,11:32:20,NA,incomplete,106,number,1,1,left,Purple_Star_Chess_3.jpg,Red_Circle_Stripes_3.jpg,Blue_Star_Dots_4.jpg,right,564.2399999778718,false,low,NA,NA,NA,NA,NA,NA,NA,false
KCHQWMb2,3kqc8jmjhf51pencp85cgosduim3h1,3z4gs9hpnznoksgh5drsrcbq88g776,KCHQWMb2,2020-0188,2020-06-04,10:45:56,11:32:20,NA,incomplete,107,number,1,0,left,Blue_Plus_Dots_4.jpg,Purple_Triangle_Stripes_4.jpg,Green_Plus_Chess_2.jpg,left,590.0499999988824,true,low,NA,NA,NA,NA,NA,NA,NA,false
KCHQWMb2,3kqc8jmjhf51pencp85cgosduim3h1,3z4gs9hpnznoksgh5drsrcbq88g776,KCHQWMb2,2020-0188,2020-06-04,10:45:56,11:32:20,NA,incomplete,108,number,1,1,right,Green_Star_Grid_3.jpg,Red_Star_Dots_1.jpg,Blue_Plus_Chess_3.jpg,right,515.1450000703335,true,low,NA,NA,NA,NA,NA,NA,NA,false
KCHQWMb2,3kqc8jmjhf51pencp85cgosduim3h1,3z4gs9hpnznoksgh5drsrcbq88g776,KCHQWMb2,2020-0188,2020-06-04,10:45:56,11:32:20,NA,incomplete,109,number,1,1,left,Green_Triangle_Chess_3.jpg,Red_Star_Dots_3.jpg,Purple_Triangle_Stripes_1.jpg,left,568.4700000565499,true,low,NA,NA,NA,NA,NA,NA,NA,false
KCHQWMb2,3kqc8jmjhf51pencp85cgosduim3h1,3z4gs9hpnznoksgh5drsrcbq88g776,KCHQWMb2,2020-0188,2020-06-04,10:45:56,11:32:20,NA,incomplete,110,number,1,1,right,Blue_Plus_Chess_3.jpg,Purple_Plus_Stripes_2.jpg,Red_Star_Grid_3.jpg,right,727.4949999991804,true,low,NA,NA,NA,NA,NA,NA,NA,false
KCHQWMb2,3kqc8jmjhf51pencp85cgosduim3h1,3z4gs9hpnznoksgh5drsrcbq88g776,KCHQWMb2,2020-0188,2020-06-04,10:45:56,11:32:20,NA,incomplete,111,number,1,1,right,Purple_Triangle_Stripes_4.jpg,Blue_Triangle_Grid_1.jpg,Red_Star_Dots_4.jpg,right,571.265000035055,true,low,NA,NA,NA,NA,NA,NA,NA,false
KCHQWMb2,3kqc8jmjhf51pencp85cgosduim3h1,3z4gs9hpnznoksgh5drsrcbq88g776,KCHQWMb2,2020-0188,2020-06-04,10:45:56,11:32:20,NA,incomplete,112,number,1,1,left,Red_Plus_Grid_1.jpg,Blue_Circle_Stripes_1.jpg,Green_Plus_Chess_3.jpg,right,554.0299999993294,false,low,NA,NA,NA,NA,NA,NA,NA,false
KCHQWMb2,3kqc8jmjhf51pencp85cgosduim3h1,3z4gs9hpnznoksgh5drsrcbq88g776,KCHQWMb2,2020-0188,2020-06-04,10:45:56,11:32:20,NA,incomplete,113,number,1,0,right,Purple_Triangle_Grid_2.jpg,Red_Triangle_Stripes_3.jpg,Green_Circle_Dots_2.jpg,left,853.2549999654293,false,low,NA,NA,NA,NA,NA,NA,NA,false
KCHQWMb2,3kqc8jmjhf51pencp85cgosduim3h1,3z4gs9hpnznoksgh5drsrcbq88g776,KCHQWMb2,2020-0188,2020-06-04,10:45:56,11:32:20,NA,incomplete,114,number,1,1,left,Red_Plus_Stripes_2.jpg,Blue_Star_Dots_2.jpg,Purple_Plus_Grid_3.jpg,left,608.3100000396371,true,low,NA,NA,NA,NA,NA,NA,NA,false
KCHQWMb2,3kqc8jmjhf51pencp85cgosduim3h1,3z4gs9hpnznoksgh5drsrcbq88g776,KCHQWMb2,2020-0188,2020-06-04,10:45:56,11:32:20,NA,incomplete,115,number,1,1,left,Red_Triangle_Dots_3.jpg,Green_Plus_Grid_3.jpg,Purple_Triangle_Chess_1.jpg,left,601.0249999817461,true,low,NA,NA,NA,NA,NA,NA,NA,false
KCHQWMb2,3kqc8jmjhf51pencp85cgosduim3h1,3z4gs9hpnznoksgh5drsrcbq88g776,KCHQWMb2,2020-0188,2020-06-04,10:45:56,11:32:20,NA,incomplete,116,number,1,1,left,Green_Star_Grid_4.jpg,Blue_Plus_Dots_4.jpg,Red_Star_Stripes_2.jpg,left,730.0750000867993,true,low,NA,NA,NA,NA,NA,NA,NA,false
KCHQWMb2,3kqc8jmjhf51pencp85cgosduim3h1,3z4gs9hpnznoksgh5drsrcbq88g776,KCHQWMb2,2020-0188,2020-06-04,10:45:56,11:32:20,NA,incomplete,117,number,1,1,left,Purple_Star_Chess_1.jpg,Red_Circle_Stripes_1.jpg,Blue_Star_Grid_2.jpg,right,594.8999999091029,false,low,NA,NA,NA,NA,NA,NA,NA,false
KCHQWMb2,3kqc8jmjhf51pencp85cgosduim3h1,3z4gs9hpnznoksgh5drsrcbq88g776,KCHQWMb2,2020-0188,2020-06-04,10:45:56,11:32:20,NA,incomplete,118,number,1,1,left,Red_Triangle_Grid_1.jpg,Blue_Star_Chess_1.jpg,Purple_Triangle_Stripes_2.jpg,left,488.685000105761,true,low,NA,NA,NA,NA,NA,NA,NA,false
KCHQWMb2,3kqc8jmjhf51pencp85cgosduim3h1,3z4gs9hpnznoksgh5drsrcbq88g776,KCHQWMb2,2020-0188,2020-06-04,10:45:56,11:32:20,NA,incomplete,119,number,1,1,right,Purple_Plus_Dots_3.jpg,Blue_Plus_Stripes_1.jpg,Red_Triangle_Chess_3.jpg,right,571.1599999340251,true,low,NA,NA,NA,NA,NA,NA,NA,false
KCHQWMb2,3kqc8jmjhf51pencp85cgosduim3h1,3z4gs9hpnznoksgh5drsrcbq88g776,KCHQWMb2,2020-0188,2020-06-04,10:45:56,11:32:20,NA,incomplete,120,race,2,1,left,A_M_08.jpg,A_F_12.jpg,C_M_04.jpg,NA,NA,NA,low,NA,NA,NA,NA,NA,NA,NA,false
KCHQWMb2,3kqc8jmjhf51pencp85cgosduim3h1,3z4gs9hpnznoksgh5drsrcbq88g776,KCHQWMb2,2020-0188,2020-06-04,10:45:56,11:32:20,NA,incomplete,121,race,2,1,right,C_M_06.jpg,A_M_10.jpg,C_F_13.jpg,none,0,false,low,NA,NA,NA,NA,NA,NA,NA,false
KCHQWMb2,3kqc8jmjhf51pencp85cgosduim3h1,3z4gs9hpnznoksgh5drsrcbq88g776,KCHQWMb2,2020-0188,2020-06-04,10:45:56,11:32:20,NA,incomplete,122,race,2,1,left,C_M_13.jpg,C_F_15.jpg,A_M_03.jpg,left,1135.1449999492615,true,low,NA,NA,NA,NA,NA,NA,NA,false
KCHQWMb2,3kqc8jmjhf51pencp85cgosduim3h1,3z4gs9hpnznoksgh5drsrcbq88g776,KCHQWMb2,2020-0188,2020-06-04,10:45:56,11:32:20,NA,incomplete,123,race,2,1,right,C_F_16.jpg,A_F_10.jpg,C_M_09.jpg,right,1342.7150000352412,true,low,NA,NA,NA,NA,NA,NA,NA,false
KCHQWMb2,3kqc8jmjhf51pencp85cgosduim3h1,3z4gs9hpnznoksgh5drsrcbq88g776,KCHQWMb2,2020-0188,2020-06-04,10:45:56,11:32:20,NA,incomplete,124,race,2,1,left,A_F_15.jpg,A_M_04.jpg,C_F_14.jpg,left,1067.0549999922514,true,low,NA,NA,NA,NA,NA,NA,NA,false
KCHQWMb2,3kqc8jmjhf51pencp85cgosduim3h1,3z4gs9hpnznoksgh5drsrcbq88g776,KCHQWMb2,2020-0188,2020-06-04,10:45:56,11:32:20,NA,incomplete,125,race,2,1,left,A_M_11.jpg,A_F_10.jpg,C_M_05.jpg,left,836.5450000856072,true,low,NA,NA,NA,NA,NA,NA,NA,false
KCHQWMb2,3kqc8jmjhf51pencp85cgosduim3h1,3z4gs9hpnznoksgh5drsrcbq88g776,KCHQWMb2,2020-0188,2020-06-04,10:45:56,11:32:20,NA,incomplete,126,race,2,1,left,C_F_05.jpg,C_M_11.jpg,A_F_08.jpg,left,877.574999933131,true,low,NA,NA,NA,NA,NA,NA,NA,false
KCHQWMb2,3kqc8jmjhf51pencp85cgosduim3h1,3z4gs9hpnznoksgh5drsrcbq88g776,KCHQWMb2,2020-0188,2020-06-04,10:45:56,11:32:20,NA,incomplete,127,race,2,1,left,C_M_01.jpg,C_F_05.jpg,A_M_09.jpg,left,1119.3549999734387,true,low,NA,NA,NA,NA,NA,NA,NA,false
KCHQWMb2,3kqc8jmjhf51pencp85cgosduim3h1,3z4gs9hpnznoksgh5drsrcbq88g776,KCHQWMb2,2020-0188,2020-06-04,10:45:56,11:32:20,NA,incomplete,128,race,2,1,right,A_F_11.jpg,C_F_02.jpg,A_M_01.jpg,right,836.5050000138581,true,low,NA,NA,NA,NA,NA,NA,NA,false
KCHQWMb2,3kqc8jmjhf51pencp85cgosduim3h1,3z4gs9hpnznoksgh5drsrcbq88g776,KCHQWMb2,2020-0188,2020-06-04,10:45:56,11:32:20,NA,incomplete,129,race,2,1,left,A_M_14.jpg,A_F_08.jpg,C_M_01.jpg,left,770.7350000273436,true,low,NA,NA,NA,NA,NA,NA,NA,false
KCHQWMb2,3kqc8jmjhf51pencp85cgosduim3h1,3z4gs9hpnznoksgh5drsrcbq88g776,KCHQWMb2,2020-0188,2020-06-04,10:45:56,11:32:20,NA,incomplete,130,race,2,1,right,A_M_08.jpg,C_M_07.jpg,A_F_03.jpg,right,896.8250000616536,true,low,NA,NA,NA,NA,NA,NA,NA,false
KCHQWMb2,3kqc8jmjhf51pencp85cgosduim3h1,3z4gs9hpnznoksgh5drsrcbq88g776,KCHQWMb2,2020-0188,2020-06-04,10:45:56,11:32:20,NA,incomplete,131,race,2,1,left,A_M_12.jpg,A_F_15.jpg,C_M_09.jpg,right,1032.3749999515712,false,low,NA,NA,NA,NA,NA,NA,NA,false
KCHQWMb2,3kqc8jmjhf51pencp85cgosduim3h1,3z4gs9hpnznoksgh5drsrcbq88g776,KCHQWMb2,2020-0188,2020-06-04,10:45:56,11:32:20,NA,incomplete,132,race,2,0,left,C_M_14.jpg,C_F_04.jpg,A_M_06.jpg,left,1010.6099999975413,true,low,NA,NA,NA,NA,NA,NA,NA,false
KCHQWMb2,3kqc8jmjhf51pencp85cgosduim3h1,3z4gs9hpnznoksgh5drsrcbq88g776,KCHQWMb2,2020-0188,2020-06-04,10:45:56,11:32:20,NA,incomplete,133,race,2,1,right,C_F_08.jpg,A_F_05.jpg,C_M_06.jpg,right,902.3549999110401,true,low,NA,NA,NA,NA,NA,NA,NA,false
KCHQWMb2,3kqc8jmjhf51pencp85cgosduim3h1,3z4gs9hpnznoksgh5drsrcbq88g776,KCHQWMb2,2020-0188,2020-06-04,10:45:56,11:32:20,NA,incomplete,134,race,2,1,left,A_M_05.jpg,A_F_03.jpg,C_M_15.jpg,left,940.7549999887124,true,low,NA,NA,NA,NA,NA,NA,NA,false
KCHQWMb2,3kqc8jmjhf51pencp85cgosduim3h1,3z4gs9hpnznoksgh5drsrcbq88g776,KCHQWMb2,2020-0188,2020-06-04,10:45:56,11:32:20,NA,incomplete,135,race,2,1,right,C_F_11.jpg,A_F_06.jpg,C_M_15.jpg,left,1062.2699999948964,false,low,NA,NA,NA,NA,NA,NA,NA,false
KCHQWMb2,3kqc8jmjhf51pencp85cgosduim3h1,3z4gs9hpnznoksgh5drsrcbq88g776,KCHQWMb2,2020-0188,2020-06-04,10:45:56,11:32:20,NA,incomplete,136,race,2,1,right,A_M_07.jpg,C_M_12.jpg,A_F_01.jpg,right,996.7299998970702,true,low,NA,NA,NA,NA,NA,NA,NA,false
KCHQWMb2,3kqc8jmjhf51pencp85cgosduim3h1,3z4gs9hpnznoksgh5drsrcbq88g776,KCHQWMb2,2020-0188,2020-06-04,10:45:56,11:32:20,NA,incomplete,137,race,2,0,left,C_F_16.jpg,C_M_11.jpg,A_F_04.jpg,left,1222.9600000428036,true,low,NA,NA,NA,NA,NA,NA,NA,false
KCHQWMb2,3kqc8jmjhf51pencp85cgosduim3h1,3z4gs9hpnznoksgh5drsrcbq88g776,KCHQWMb2,2020-0188,2020-06-04,10:45:56,11:32:20,NA,incomplete,138,race,2,1,right,C_M_13.jpg,A_M_14.jpg,C_F_12.jpg,right,1129.4749999651685,true,low,NA,NA,NA,NA,NA,NA,NA,false
KCHQWMb2,3kqc8jmjhf51pencp85cgosduim3h1,3z4gs9hpnznoksgh5drsrcbq88g776,KCHQWMb2,2020-0188,2020-06-04,10:45:56,11:32:20,NA,incomplete,139,race,2,1,left,C_F_05.jpg,C_M_13.jpg,A_F_07.jpg,left,839.9000000208616,true,low,NA,NA,NA,NA,NA,NA,NA,false
KCHQWMb2,3kqc8jmjhf51pencp85cgosduim3h1,3z4gs9hpnznoksgh5drsrcbq88g776,KCHQWMb2,2020-0188,2020-06-04,10:45:56,11:32:20,NA,incomplete,140,gender,3,1,left,A_F_13.jpg,C_F_01.jpg,A_M_04.jpg,right,889.3199999583885,false,low,NA,NA,NA,NA,NA,NA,NA,false
KCHQWMb2,3kqc8jmjhf51pencp85cgosduim3h1,3z4gs9hpnznoksgh5drsrcbq88g776,KCHQWMb2,2020-0188,2020-06-04,10:45:56,11:32:20,NA,incomplete,141,gender,3,0,left,A_M_15.jpg,C_M_16.jpg,A_F_01.jpg,right,924.5799999916926,false,low,NA,NA,NA,NA,NA,NA,NA,false
KCHQWMb2,3kqc8jmjhf51pencp85cgosduim3h1,3z4gs9hpnznoksgh5drsrcbq88g776,KCHQWMb2,2020-0188,2020-06-04,10:45:56,11:32:20,NA,incomplete,142,gender,3,1,right,C_F_04.jpg,C_M_06.jpg,A_F_10.jpg,left,1090.7150000566617,false,low,NA,NA,NA,NA,NA,NA,NA,false
KCHQWMb2,3kqc8jmjhf51pencp85cgosduim3h1,3z4gs9hpnznoksgh5drsrcbq88g776,KCHQWMb2,2020-0188,2020-06-04,10:45:56,11:32:20,NA,incomplete,143,gender,3,1,left,C_M_05.jpg,A_M_14.jpg,C_F_03.jpg,right,942.0099999988452,false,low,NA,NA,NA,NA,NA,NA,NA,false
KCHQWMb2,3kqc8jmjhf51pencp85cgosduim3h1,3z4gs9hpnznoksgh5drsrcbq88g776,KCHQWMb2,2020-0188,2020-06-04,10:45:56,11:32:20,NA,incomplete,144,gender,3,1,left,A_M_02.jpg,C_M_09.jpg,A_F_15.jpg,right,1075.524999992922,false,low,NA,NA,NA,NA,NA,NA,NA,false
KCHQWMb2,3kqc8jmjhf51pencp85cgosduim3h1,3z4gs9hpnznoksgh5drsrcbq88g776,KCHQWMb2,2020-0188,2020-06-04,10:45:56,11:32:20,NA,incomplete,145,gender,3,1,left,C_F_14.jpg,A_F_10.jpg,C_M_02.jpg,left,983.4799999371171,true,low,NA,NA,NA,NA,NA,NA,NA,false
KCHQWMb2,3kqc8jmjhf51pencp85cgosduim3h1,3z4gs9hpnznoksgh5drsrcbq88g776,KCHQWMb2,2020-0188,2020-06-04,10:45:56,11:32:20,NA,incomplete,146,gender,3,1,left,A_F_13.jpg,C_F_14.jpg,A_M_02.jpg,right,1038.5000000242144,false,low,NA,NA,NA,NA,NA,NA,NA,false
KCHQWMb2,3kqc8jmjhf51pencp85cgosduim3h1,3z4gs9hpnznoksgh5drsrcbq88g776,KCHQWMb2,2020-0188,2020-06-04,10:45:56,11:32:20,NA,incomplete,147,gender,3,1,left,C_M_04.jpg,A_M_06.jpg,C_F_07.jpg,left,1050.1350000267848,true,low,NA,NA,NA,NA,NA,NA,NA,false
KCHQWMb2,3kqc8jmjhf51pencp85cgosduim3h1,3z4gs9hpnznoksgh5drsrcbq88g776,KCHQWMb2,2020-0188,2020-06-04,10:45:56,11:32:20,NA,incomplete,148,gender,3,0,right,C_M_09.jpg,C_F_06.jpg,A_M_07.jpg,right,998.784999945201,true,low,NA,NA,NA,NA,NA,NA,NA,false
KCHQWMb2,3kqc8jmjhf51pencp85cgosduim3h1,3z4gs9hpnznoksgh5drsrcbq88g776,KCHQWMb2,2020-0188,2020-06-04,10:45:56,11:32:20,NA,incomplete,149,gender,3,1,left,A_M_12.jpg,C_M_09.jpg,A_F_08.jpg,right,901.2700000312179,false,low,NA,NA,NA,NA,NA,NA,NA,false
KCHQWMb2,3kqc8jmjhf51pencp85cgosduim3h1,3z4gs9hpnznoksgh5drsrcbq88g776,KCHQWMb2,2020-0188,2020-06-04,10:45:56,11:32:20,NA,incomplete,150,gender,3,1,right,C_F_03.jpg,C_M_12.jpg,A_F_16.jpg,right,1253.4149999264628,true,low,NA,NA,NA,NA,NA,NA,NA,false
KCHQWMb2,3kqc8jmjhf51pencp85cgosduim3h1,3z4gs9hpnznoksgh5drsrcbq88g776,KCHQWMb2,2020-0188,2020-06-04,10:45:56,11:32:20,NA,incomplete,151,gender,3,1,left,C_M_01.jpg,A_M_12.jpg,C_F_16.jpg,right,997.6349999196827,false,low,NA,NA,NA,NA,NA,NA,NA,false
KCHQWMb2,3kqc8jmjhf51pencp85cgosduim3h1,3z4gs9hpnznoksgh5drsrcbq88g776,KCHQWMb2,2020-0188,2020-06-04,10:45:56,11:32:20,NA,incomplete,152,gender,3,1,right,A_F_09.jpg,A_M_06.jpg,C_F_13.jpg,left,852.6350000174716,false,low,NA,NA,NA,NA,NA,NA,NA,false
KCHQWMb2,3kqc8jmjhf51pencp85cgosduim3h1,3z4gs9hpnznoksgh5drsrcbq88g776,KCHQWMb2,2020-0188,2020-06-04,10:45:56,11:32:20,NA,incomplete,153,gender,3,0,left,C_M_04.jpg,A_M_05.jpg,C_F_10.jpg,right,952.0150000462309,false,low,NA,NA,NA,NA,NA,NA,NA,false
KCHQWMb2,3kqc8jmjhf51pencp85cgosduim3h1,3z4gs9hpnznoksgh5drsrcbq88g776,KCHQWMb2,2020-0188,2020-06-04,10:45:56,11:32:20,NA,incomplete,154,gender,3,1,left,A_M_12.jpg,C_M_15.jpg,A_F_16.jpg,left,871.5500000398606,true,low,NA,NA,NA,NA,NA,NA,NA,false
KCHQWMb2,3kqc8jmjhf51pencp85cgosduim3h1,3z4gs9hpnznoksgh5drsrcbq88g776,KCHQWMb2,2020-0188,2020-06-04,10:45:56,11:32:20,NA,incomplete,155,gender,3,1,left,A_M_09.jpg,C_M_05.jpg,A_F_10.jpg,left,1028.7800000514835,true,low,NA,NA,NA,NA,NA,NA,NA,false
KCHQWMb2,3kqc8jmjhf51pencp85cgosduim3h1,3z4gs9hpnznoksgh5drsrcbq88g776,KCHQWMb2,2020-0188,2020-06-04,10:45:56,11:32:20,NA,incomplete,156,gender,3,1,right,A_M_15.jpg,A_F_01.jpg,C_M_03.jpg,right,818.254999932833,true,low,NA,NA,NA,NA,NA,NA,NA,false
KCHQWMb2,3kqc8jmjhf51pencp85cgosduim3h1,3z4gs9hpnznoksgh5drsrcbq88g776,KCHQWMb2,2020-0188,2020-06-04,10:45:56,11:32:20,NA,incomplete,157,gender,3,1,right,A_F_10.jpg,A_M_15.jpg,C_F_09.jpg,right,1408.9749999111518,true,low,NA,NA,NA,NA,NA,NA,NA,false
KCHQWMb2,3kqc8jmjhf51pencp85cgosduim3h1,3z4gs9hpnznoksgh5drsrcbq88g776,KCHQWMb2,2020-0188,2020-06-04,10:45:56,11:32:20,NA,incomplete,158,gender,3,1,right,A_F_13.jpg,A_M_05.jpg,C_F_07.jpg,right,883.7950000306591,true,low,NA,NA,NA,NA,NA,NA,NA,false
KCHQWMb2,3kqc8jmjhf51pencp85cgosduim3h1,3z4gs9hpnznoksgh5drsrcbq88g776,KCHQWMb2,2020-0188,2020-06-04,10:45:56,11:32:20,NA,incomplete,159,gender,3,0,right,A_F_01.jpg,A_M_02.jpg,C_F_08.jpg,right,783.8550000451505,true,low,NA,NA,NA,NA,NA,NA,NA,false
KCHQWMb2,3kqc8jmjhf51pencp85cgosduim3h1,3z4gs9hpnznoksgh5drsrcbq88g776,KCHQWMb2,2020-0188,2020-06-04,10:45:56,11:32:20,NA,incomplete,160,race,2,1,left,C_M_01.jpg,C_F_03.jpg,A_M_15.jpg,right,912.1850000228733,false,low,NA,NA,NA,NA,NA,NA,NA,false
KCHQWMb2,3kqc8jmjhf51pencp85cgosduim3h1,3z4gs9hpnznoksgh5drsrcbq88g776,KCHQWMb2,2020-0188,2020-06-04,10:45:56,11:32:20,NA,incomplete,161,race,2,1,right,A_F_04.jpg,C_F_10.jpg,A_M_16.jpg,right,1178.6850000498816,true,low,NA,NA,NA,NA,NA,NA,NA,false
KCHQWMb2,3kqc8jmjhf51pencp85cgosduim3h1,3z4gs9hpnznoksgh5drsrcbq88g776,KCHQWMb2,2020-0188,2020-06-04,10:45:56,11:32:20,NA,incomplete,162,race,2,1,left,A_M_16.jpg,A_F_01.jpg,C_M_09.jpg,left,914.7749999538064,true,low,NA,NA,NA,NA,NA,NA,NA,false
KCHQWMb2,3kqc8jmjhf51pencp85cgosduim3h1,3z4gs9hpnznoksgh5drsrcbq88g776,KCHQWMb2,2020-0188,2020-06-04,10:45:56,11:32:20,NA,incomplete,163,race,2,1,right,C_F_03.jpg,A_F_15.jpg,C_M_06.jpg,left,783.570000086911,false,low,NA,NA,NA,NA,NA,NA,NA,false
KCHQWMb2,3kqc8jmjhf51pencp85cgosduim3h1,3z4gs9hpnznoksgh5drsrcbq88g776,KCHQWMb2,2020-0188,2020-06-04,10:45:56,11:32:20,NA,incomplete,164,race,2,0,left,C_M_14.jpg,C_F_04.jpg,A_M_06.jpg,right,723.1400000164285,false,low,NA,NA,NA,NA,NA,NA,NA,false
KCHQWMb2,3kqc8jmjhf51pencp85cgosduim3h1,3z4gs9hpnznoksgh5drsrcbq88g776,KCHQWMb2,2020-0188,2020-06-04,10:45:56,11:32:20,NA,incomplete,165,race,2,1,right,C_F_03.jpg,A_F_16.jpg,C_M_06.jpg,left,759.9349999800324,false,low,NA,NA,NA,NA,NA,NA,NA,false
KCHQWMb2,3kqc8jmjhf51pencp85cgosduim3h1,3z4gs9hpnznoksgh5drsrcbq88g776,KCHQWMb2,2020-0188,2020-06-04,10:45:56,11:32:20,NA,incomplete,166,race,2,1,left,A_F_09.jpg,A_M_15.jpg,C_F_11.jpg,left,1071.3449999457225,true,low,NA,NA,NA,NA,NA,NA,NA,false
KCHQWMb2,3kqc8jmjhf51pencp85cgosduim3h1,3z4gs9hpnznoksgh5drsrcbq88g776,KCHQWMb2,2020-0188,2020-06-04,10:45:56,11:32:20,NA,incomplete,167,race,2,1,left,A_F_05.jpg,A_M_16.jpg,C_F_04.jpg,left,986.8799999821931,true,low,NA,NA,NA,NA,NA,NA,NA,false
KCHQWMb2,3kqc8jmjhf51pencp85cgosduim3h1,3z4gs9hpnznoksgh5drsrcbq88g776,KCHQWMb2,2020-0188,2020-06-04,10:45:56,11:32:20,NA,incomplete,168,race,2,0,right,A_F_06.jpg,C_F_10.jpg,A_M_13.jpg,left,1079.3900000862777,false,low,NA,NA,NA,NA,NA,NA,NA,false
KCHQWMb2,3kqc8jmjhf51pencp85cgosduim3h1,3z4gs9hpnznoksgh5drsrcbq88g776,KCHQWMb2,2020-0188,2020-06-04,10:45:56,11:32:20,NA,incomplete,169,race,2,1,left,C_M_11.jpg,C_F_02.jpg,A_M_06.jpg,right,904.0449999738485,false,low,NA,NA,NA,NA,NA,NA,NA,false
KCHQWMb2,3kqc8jmjhf51pencp85cgosduim3h1,3z4gs9hpnznoksgh5drsrcbq88g776,KCHQWMb2,2020-0188,2020-06-04,10:45:56,11:32:20,NA,incomplete,170,race,2,1,right,A_F_15.jpg,C_F_09.jpg,A_M_06.jpg,right,1038.4850000264123,true,low,NA,NA,NA,NA,NA,NA,NA,false
KCHQWMb2,3kqc8jmjhf51pencp85cgosduim3h1,3z4gs9hpnznoksgh5drsrcbq88g776,KCHQWMb2,2020-0188,2020-06-04,10:45:56,11:32:20,NA,incomplete,171,race,2,1,left,A_M_11.jpg,A_F_06.jpg,C_M_04.jpg,right,908.0700000049546,false,low,NA,NA,NA,NA,NA,NA,NA,false
KCHQWMb2,3kqc8jmjhf51pencp85cgosduim3h1,3z4gs9hpnznoksgh5drsrcbq88g776,KCHQWMb2,2020-0188,2020-06-04,10:45:56,11:32:20,NA,incomplete,172,race,2,1,right,A_M_04.jpg,C_M_01.jpg,A_F_14.jpg,right,839.3299999879673,true,low,NA,NA,NA,NA,NA,NA,NA,false
KCHQWMb2,3kqc8jmjhf51pencp85cgosduim3h1,3z4gs9hpnznoksgh5drsrcbq88g776,KCHQWMb2,2020-0188,2020-06-04,10:45:56,11:32:20,NA,incomplete,173,race,2,1,left,C_F_12.jpg,C_M_14.jpg,A_F_16.jpg,right,877.0299999741837,false,low,NA,NA,NA,NA,NA,NA,NA,false
KCHQWMb2,3kqc8jmjhf51pencp85cgosduim3h1,3z4gs9hpnznoksgh5drsrcbq88g776,KCHQWMb2,2020-0188,2020-06-04,10:45:56,11:32:20,NA,incomplete,174,race,2,1,left,A_F_02.jpg,A_M_01.jpg,C_F_14.jpg,left,781.5499999560416,true,low,NA,NA,NA,NA,NA,NA,NA,false
KCHQWMb2,3kqc8jmjhf51pencp85cgosduim3h1,3z4gs9hpnznoksgh5drsrcbq88g776,KCHQWMb2,2020-0188,2020-06-04,10:45:56,11:32:20,NA,incomplete,175,race,2,0,left,A_F_04.jpg,A_M_10.jpg,C_F_11.jpg,right,839.975000009872,false,low,NA,NA,NA,NA,NA,NA,NA,false
KCHQWMb2,3kqc8jmjhf51pencp85cgosduim3h1,3z4gs9hpnznoksgh5drsrcbq88g776,KCHQWMb2,2020-0188,2020-06-04,10:45:56,11:32:20,NA,incomplete,176,race,2,1,right,A_F_16.jpg,C_F_12.jpg,A_M_13.jpg,right,856.6499999724329,true,low,NA,NA,NA,NA,NA,NA,NA,false
KCHQWMb2,3kqc8jmjhf51pencp85cgosduim3h1,3z4gs9hpnznoksgh5drsrcbq88g776,KCHQWMb2,2020-0188,2020-06-04,10:45:56,11:32:20,NA,incomplete,177,race,2,0,right,C_F_06.jpg,A_F_08.jpg,C_M_02.jpg,left,878.1749999616295,false,low,NA,NA,NA,NA,NA,NA,NA,false
KCHQWMb2,3kqc8jmjhf51pencp85cgosduim3h1,3z4gs9hpnznoksgh5drsrcbq88g776,KCHQWMb2,2020-0188,2020-06-04,10:45:56,11:32:20,NA,incomplete,178,race,2,1,right,A_F_06.jpg,C_F_02.jpg,A_M_11.jpg,left,821.8300000298768,false,low,NA,NA,NA,NA,NA,NA,NA,false
KCHQWMb2,3kqc8jmjhf51pencp85cgosduim3h1,3z4gs9hpnznoksgh5drsrcbq88g776,KCHQWMb2,2020-0188,2020-06-04,10:45:56,11:32:20,NA,incomplete,179,race,2,1,left,C_M_06.jpg,C_F_16.jpg,A_M_15.jpg,left,854.6550000319257,true,low,NA,NA,NA,NA,NA,NA,NA,false
KCHQWMb2,3kqc8jmjhf51pencp85cgosduim3h1,3z4gs9hpnznoksgh5drsrcbq88g776,KCHQWMb2,2020-0188,2020-06-04,10:45:56,11:32:20,NA,incomplete,180,gender,3,1,left,C_F_09.jpg,A_F_06.jpg,C_M_15.jpg,left,793.9500000793487,true,low,NA,NA,NA,NA,NA,NA,NA,false
KCHQWMb2,3kqc8jmjhf51pencp85cgosduim3h1,3z4gs9hpnznoksgh5drsrcbq88g776,KCHQWMb2,2020-0188,2020-06-04,10:45:56,11:32:20,NA,incomplete,181,gender,3,1,right,A_M_05.jpg,A_F_02.jpg,C_M_15.jpg,left,932.4049999704584,false,low,NA,NA,NA,NA,NA,NA,NA,false
KCHQWMb2,3kqc8jmjhf51pencp85cgosduim3h1,3z4gs9hpnznoksgh5drsrcbq88g776,KCHQWMb2,2020-0188,2020-06-04,10:45:56,11:32:20,NA,incomplete,182,gender,3,1,right,A_F_07.jpg,A_M_02.jpg,C_F_08.jpg,right,742.7850000094622,true,low,NA,NA,NA,NA,NA,NA,NA,false
KCHQWMb2,3kqc8jmjhf51pencp85cgosduim3h1,3z4gs9hpnznoksgh5drsrcbq88g776,KCHQWMb2,2020-0188,2020-06-04,10:45:56,11:32:20,NA,incomplete,183,gender,3,1,left,A_F_12.jpg,C_F_16.jpg,A_M_06.jpg,right,607.5949999503791,false,low,NA,NA,NA,NA,NA,NA,NA,false
KCHQWMb2,3kqc8jmjhf51pencp85cgosduim3h1,3z4gs9hpnznoksgh5drsrcbq88g776,KCHQWMb2,2020-0188,2020-06-04,10:45:56,11:32:20,NA,incomplete,184,gender,3,0,right,A_F_11.jpg,A_M_13.jpg,C_F_06.jpg,right,786.5699999965727,true,low,NA,NA,NA,NA,NA,NA,NA,false
KCHQWMb2,3kqc8jmjhf51pencp85cgosduim3h1,3z4gs9hpnznoksgh5drsrcbq88g776,KCHQWMb2,2020-0188,2020-06-04,10:45:56,11:32:20,NA,incomplete,185,gender,3,1,left,C_M_01.jpg,A_M_09.jpg,C_F_08.jpg,left,881.5900000045076,true,low,NA,NA,NA,NA,NA,NA,NA,false
KCHQWMb2,3kqc8jmjhf51pencp85cgosduim3h1,3z4gs9hpnznoksgh5drsrcbq88g776,KCHQWMb2,2020-0188,2020-06-04,10:45:56,11:32:20,NA,incomplete,186,gender,3,0,right,A_M_05.jpg,A_F_14.jpg,C_M_10.jpg,left,898.879999993369,false,low,NA,NA,NA,NA,NA,NA,NA,false
KCHQWMb2,3kqc8jmjhf51pencp85cgosduim3h1,3z4gs9hpnznoksgh5drsrcbq88g776,KCHQWMb2,2020-0188,2020-06-04,10:45:56,11:32:20,NA,incomplete,187,gender,3,1,right,A_F_06.jpg,A_M_05.jpg,C_F_03.jpg,right,737.5349999638274,true,low,NA,NA,NA,NA,NA,NA,NA,false
KCHQWMb2,3kqc8jmjhf51pencp85cgosduim3h1,3z4gs9hpnznoksgh5drsrcbq88g776,KCHQWMb2,2020-0188,2020-06-04,10:45:56,11:32:20,NA,incomplete,188,gender,3,1,left,C_M_16.jpg,A_M_12.jpg,C_F_03.jpg,left,791.7449999367818,true,low,NA,NA,NA,NA,NA,NA,NA,false
KCHQWMb2,3kqc8jmjhf51pencp85cgosduim3h1,3z4gs9hpnznoksgh5drsrcbq88g776,KCHQWMb2,2020-0188,2020-06-04,10:45:56,11:32:20,NA,incomplete,189,gender,3,1,right,A_F_06.jpg,A_M_14.jpg,C_F_08.jpg,left,886.3350000465289,false,low,NA,NA,NA,NA,NA,NA,NA,false
KCHQWMb2,3kqc8jmjhf51pencp85cgosduim3h1,3z4gs9hpnznoksgh5drsrcbq88g776,KCHQWMb2,2020-0188,2020-06-04,10:45:56,11:32:20,NA,incomplete,190,gender,3,1,left,A_M_07.jpg,C_M_05.jpg,A_F_02.jpg,left,918.2099999161437,true,low,NA,NA,NA,NA,NA,NA,NA,false
KCHQWMb2,3kqc8jmjhf51pencp85cgosduim3h1,3z4gs9hpnznoksgh5drsrcbq88g776,KCHQWMb2,2020-0188,2020-06-04,10:45:56,11:32:20,NA,incomplete,191,gender,3,1,right,C_F_06.jpg,C_M_02.jpg,A_F_10.jpg,right,705.3200000664219,true,low,NA,NA,NA,NA,NA,NA,NA,false
KCHQWMb2,3kqc8jmjhf51pencp85cgosduim3h1,3z4gs9hpnznoksgh5drsrcbq88g776,KCHQWMb2,2020-0188,2020-06-04,10:45:56,11:32:20,NA,incomplete,192,gender,3,1,right,A_F_09.jpg,A_M_01.jpg,C_F_14.jpg,left,755.974999978207,false,low,NA,NA,NA,NA,NA,NA,NA,false
KCHQWMb2,3kqc8jmjhf51pencp85cgosduim3h1,3z4gs9hpnznoksgh5drsrcbq88g776,KCHQWMb2,2020-0188,2020-06-04,10:45:56,11:32:20,NA,incomplete,193,gender,3,1,left,C_F_12.jpg,A_F_10.jpg,C_M_05.jpg,right,938.6100000701845,false,low,NA,NA,NA,NA,NA,NA,NA,false
KCHQWMb2,3kqc8jmjhf51pencp85cgosduim3h1,3z4gs9hpnznoksgh5drsrcbq88g776,KCHQWMb2,2020-0188,2020-06-04,10:45:56,11:32:20,NA,incomplete,194,gender,3,1,right,C_M_13.jpg,C_F_08.jpg,A_M_15.jpg,right,866.5650000330061,true,low,NA,NA,NA,NA,NA,NA,NA,false
KCHQWMb2,3kqc8jmjhf51pencp85cgosduim3h1,3z4gs9hpnznoksgh5drsrcbq88g776,KCHQWMb2,2020-0188,2020-06-04,10:45:56,11:32:20,NA,incomplete,195,gender,3,1,right,A_F_13.jpg,A_M_01.jpg,C_F_04.jpg,left,908.835000009276,false,low,NA,NA,NA,NA,NA,NA,NA,false
KCHQWMb2,3kqc8jmjhf51pencp85cgosduim3h1,3z4gs9hpnznoksgh5drsrcbq88g776,KCHQWMb2,2020-0188,2020-06-04,10:45:56,11:32:20,NA,incomplete,196,gender,3,0,right,C_M_11.jpg,C_F_15.jpg,A_M_14.jpg,right,808.4500000113621,true,low,NA,NA,NA,NA,NA,NA,NA,false
KCHQWMb2,3kqc8jmjhf51pencp85cgosduim3h1,3z4gs9hpnznoksgh5drsrcbq88g776,KCHQWMb2,2020-0188,2020-06-04,10:45:56,11:32:20,NA,incomplete,197,gender,3,1,left,A_F_02.jpg,C_F_03.jpg,A_M_15.jpg,left,833.8149999035522,true,low,NA,NA,NA,NA,NA,NA,NA,false
KCHQWMb2,3kqc8jmjhf51pencp85cgosduim3h1,3z4gs9hpnznoksgh5drsrcbq88g776,KCHQWMb2,2020-0188,2020-06-04,10:45:56,11:32:20,NA,incomplete,198,gender,3,1,left,C_M_01.jpg,A_M_10.jpg,C_F_16.jpg,left,1078.3749999245629,true,low,NA,NA,NA,NA,NA,NA,NA,false
KCHQWMb2,3kqc8jmjhf51pencp85cgosduim3h1,3z4gs9hpnznoksgh5drsrcbq88g776,KCHQWMb2,2020-0188,2020-06-04,10:45:56,11:32:20,NA,incomplete,199,gender,3,1,right,A_F_13.jpg,A_M_01.jpg,C_F_07.jpg,left,772.6349999429658,false,low,NA,NA,NA,NA,NA,NA,NA,false
KCHQWMb2,3kqc8jmjhf51pencp85cgosduim3h1,3z4gs9hpnznoksgh5drsrcbq88g776,KCHQWMb2,2020-0188,2020-06-04,10:45:56,11:32:20,NA,incomplete,200,race,2,0,left,C_F_06.jpg,C_M_12.jpg,A_F_16.jpg,right,475.82000005058944,false,low,NA,NA,NA,NA,NA,NA,NA,false
KCHQWMb2,3kqc8jmjhf51pencp85cgosduim3h1,3z4gs9hpnznoksgh5drsrcbq88g776,KCHQWMb2,2020-0188,2020-06-04,10:45:56,11:32:20,NA,incomplete,201,race,2,1,right,C_F_01.jpg,A_F_13.jpg,C_M_06.jpg,left,676.549999974668,false,low,NA,NA,NA,NA,NA,NA,NA,false
KCHQWMb2,3kqc8jmjhf51pencp85cgosduim3h1,3z4gs9hpnznoksgh5drsrcbq88g776,KCHQWMb2,2020-0188,2020-06-04,10:45:56,11:32:20,NA,incomplete,202,race,2,0,left,C_F_03.jpg,C_M_13.jpg,A_F_02.jpg,right,358.074999996461,false,low,NA,NA,NA,NA,NA,NA,NA,false
KCHQWMb2,3kqc8jmjhf51pencp85cgosduim3h1,3z4gs9hpnznoksgh5drsrcbq88g776,KCHQWMb2,2020-0188,2020-06-04,10:45:56,11:32:20,NA,incomplete,203,race,2,1,left,A_F_10.jpg,A_M_16.jpg,C_F_06.jpg,right,580.7650000788271,false,low,NA,NA,NA,NA,NA,NA,NA,false
KCHQWMb2,3kqc8jmjhf51pencp85cgosduim3h1,3z4gs9hpnznoksgh5drsrcbq88g776,KCHQWMb2,2020-0188,2020-06-04,10:45:56,11:32:20,NA,incomplete,204,race,2,0,right,A_F_08.jpg,C_F_12.jpg,A_M_13.jpg,left,807.1299999719486,false,low,NA,NA,NA,NA,NA,NA,NA,false
KCHQWMb2,3kqc8jmjhf51pencp85cgosduim3h1,3z4gs9hpnznoksgh5drsrcbq88g776,KCHQWMb2,2020-0188,2020-06-04,10:45:56,11:32:20,NA,incomplete,205,race,2,1,left,C_F_05.jpg,C_M_06.jpg,A_F_01.jpg,right,659.7499999916181,false,low,NA,NA,NA,NA,NA,NA,NA,false
KCHQWMb2,3kqc8jmjhf51pencp85cgosduim3h1,3z4gs9hpnznoksgh5drsrcbq88g776,KCHQWMb2,2020-0188,2020-06-04,10:45:56,11:32:20,NA,incomplete,206,race,2,1,right,C_F_10.jpg,A_F_16.jpg,C_M_13.jpg,left,850.4549999488518,false,low,NA,NA,NA,NA,NA,NA,NA,false
KCHQWMb2,3kqc8jmjhf51pencp85cgosduim3h1,3z4gs9hpnznoksgh5drsrcbq88g776,KCHQWMb2,2020-0188,2020-06-04,10:45:56,11:32:20,NA,incomplete,207,race,2,1,right,C_M_12.jpg,A_M_16.jpg,C_F_09.jpg,left,1022.1900000469759,false,low,NA,NA,NA,NA,NA,NA,NA,false
KCHQWMb2,3kqc8jmjhf51pencp85cgosduim3h1,3z4gs9hpnznoksgh5drsrcbq88g776,KCHQWMb2,2020-0188,2020-06-04,10:45:56,11:32:20,NA,incomplete,208,race,2,0,right,A_M_07.jpg,C_M_04.jpg,A_F_14.jpg,right,765.625,true,low,NA,NA,NA,NA,NA,NA,NA,false
KCHQWMb2,3kqc8jmjhf51pencp85cgosduim3h1,3z4gs9hpnznoksgh5drsrcbq88g776,KCHQWMb2,2020-0188,2020-06-04,10:45:56,11:32:20,NA,incomplete,209,race,2,1,left,A_M_03.jpg,A_F_04.jpg,C_M_06.jpg,right,775.0650000525638,false,low,NA,NA,NA,NA,NA,NA,NA,false
KCHQWMb2,3kqc8jmjhf51pencp85cgosduim3h1,3z4gs9hpnznoksgh5drsrcbq88g776,KCHQWMb2,2020-0188,2020-06-04,10:45:56,11:32:20,NA,incomplete,210,race,2,1,right,C_F_14.jpg,A_F_10.jpg,C_M_13.jpg,left,668.9100000075996,false,low,NA,NA,NA,NA,NA,NA,NA,false
KCHQWMb2,3kqc8jmjhf51pencp85cgosduim3h1,3z4gs9hpnznoksgh5drsrcbq88g776,KCHQWMb2,2020-0188,2020-06-04,10:45:56,11:32:20,NA,incomplete,211,race,2,1,left,C_F_03.jpg,C_M_13.jpg,A_F_11.jpg,left,781.9250000175089,true,low,NA,NA,NA,NA,NA,NA,NA,false
KCHQWMb2,3kqc8jmjhf51pencp85cgosduim3h1,3z4gs9hpnznoksgh5drsrcbq88g776,KCHQWMb2,2020-0188,2020-06-04,10:45:56,11:32:20,NA,incomplete,212,race,2,0,right,C_F_16.jpg,A_F_03.jpg,C_M_11.jpg,left,651.5599999111146,false,low,NA,NA,NA,NA,NA,NA,NA,false
KCHQWMb2,3kqc8jmjhf51pencp85cgosduim3h1,3z4gs9hpnznoksgh5drsrcbq88g776,KCHQWMb2,2020-0188,2020-06-04,10:45:56,11:32:20,NA,incomplete,213,race,2,1,right,A_M_06.jpg,C_M_15.jpg,A_F_10.jpg,right,724.114999989979,true,low,NA,NA,NA,NA,NA,NA,NA,false
KCHQWMb2,3kqc8jmjhf51pencp85cgosduim3h1,3z4gs9hpnznoksgh5drsrcbq88g776,KCHQWMb2,2020-0188,2020-06-04,10:45:56,11:32:20,NA,incomplete,214,race,2,1,right,A_F_16.jpg,C_F_13.jpg,A_M_05.jpg,left,761.1549999564886,false,low,NA,NA,NA,NA,NA,NA,NA,false
KCHQWMb2,3kqc8jmjhf51pencp85cgosduim3h1,3z4gs9hpnznoksgh5drsrcbq88g776,KCHQWMb2,2020-0188,2020-06-04,10:45:56,11:32:20,NA,incomplete,215,race,2,1,left,C_F_15.jpg,C_M_01.jpg,A_F_09.jpg,left,892.2249999595806,true,low,NA,NA,NA,NA,NA,NA,NA,false
KCHQWMb2,3kqc8jmjhf51pencp85cgosduim3h1,3z4gs9hpnznoksgh5drsrcbq88g776,KCHQWMb2,2020-0188,2020-06-04,10:45:56,11:32:20,NA,incomplete,216,race,2,1,left,A_F_05.jpg,A_M_14.jpg,C_F_04.jpg,left,869.8399999411777,true,low,NA,NA,NA,NA,NA,NA,NA,false
KCHQWMb2,3kqc8jmjhf51pencp85cgosduim3h1,3z4gs9hpnznoksgh5drsrcbq88g776,KCHQWMb2,2020-0188,2020-06-04,10:45:56,11:32:20,NA,incomplete,217,race,2,1,right,A_M_16.jpg,C_M_15.jpg,A_F_10.jpg,left,877.5600000517443,false,low,NA,NA,NA,NA,NA,NA,NA,false
KCHQWMb2,3kqc8jmjhf51pencp85cgosduim3h1,3z4gs9hpnznoksgh5drsrcbq88g776,KCHQWMb2,2020-0188,2020-06-04,10:45:56,11:32:20,NA,incomplete,218,race,2,1,left,C_M_09.jpg,C_F_11.jpg,A_M_01.jpg,right,946.059999987483,false,low,NA,NA,NA,NA,NA,NA,NA,false
KCHQWMb2,3kqc8jmjhf51pencp85cgosduim3h1,3z4gs9hpnznoksgh5drsrcbq88g776,KCHQWMb2,2020-0188,2020-06-04,10:45:56,11:32:20,NA,incomplete,219,race,2,0,right,C_F_04.jpg,A_F_10.jpg,C_M_02.jpg,left,545.2700000023469,false,low,NA,NA,NA,NA,NA,NA,NA,false
KCHQWMb2,3kqc8jmjhf51pencp85cgosduim3h1,3z4gs9hpnznoksgh5drsrcbq88g776,KCHQWMb2,2020-0188,2020-06-04,10:45:56,11:32:20,NA,incomplete,220,gender,3,1,left,C_F_02.jpg,A_F_03.jpg,C_M_05.jpg,left,664.6750000072643,true,low,NA,NA,NA,NA,NA,NA,NA,false
KCHQWMb2,3kqc8jmjhf51pencp85cgosduim3h1,3z4gs9hpnznoksgh5drsrcbq88g776,KCHQWMb2,2020-0188,2020-06-04,10:45:56,11:32:20,NA,incomplete,221,gender,3,1,right,C_F_06.jpg,C_M_15.jpg,A_F_04.jpg,left,512.140000006184,false,low,NA,NA,NA,NA,NA,NA,NA,false
KCHQWMb2,3kqc8jmjhf51pencp85cgosduim3h1,3z4gs9hpnznoksgh5drsrcbq88g776,KCHQWMb2,2020-0188,2020-06-04,10:45:56,11:32:20,NA,incomplete,222,gender,3,1,right,A_M_08.jpg,A_F_01.jpg,C_M_07.jpg,right,465.6350000295788,true,low,NA,NA,NA,NA,NA,NA,NA,false
KCHQWMb2,3kqc8jmjhf51pencp85cgosduim3h1,3z4gs9hpnznoksgh5drsrcbq88g776,KCHQWMb2,2020-0188,2020-06-04,10:45:56,11:32:20,NA,incomplete,223,gender,3,1,left,A_F_16.jpg,C_F_04.jpg,A_M_07.jpg,left,1155.8550000190735,true,low,NA,NA,NA,NA,NA,NA,NA,false
KCHQWMb2,3kqc8jmjhf51pencp85cgosduim3h1,3z4gs9hpnznoksgh5drsrcbq88g776,KCHQWMb2,2020-0188,2020-06-04,10:45:56,11:32:20,NA,incomplete,224,gender,3,1,right,A_F_03.jpg,A_M_10.jpg,C_F_13.jpg,right,766.6400000452995,true,low,NA,NA,NA,NA,NA,NA,NA,false
KCHQWMb2,3kqc8jmjhf51pencp85cgosduim3h1,3z4gs9hpnznoksgh5drsrcbq88g776,KCHQWMb2,2020-0188,2020-06-04,10:45:56,11:32:20,NA,incomplete,225,gender,3,0,right,A_M_08.jpg,A_F_06.jpg,C_M_15.jpg,left,762.2899999842048,false,low,NA,NA,NA,NA,NA,NA,NA,false
KCHQWMb2,3kqc8jmjhf51pencp85cgosduim3h1,3z4gs9hpnznoksgh5drsrcbq88g776,KCHQWMb2,2020-0188,2020-06-04,10:45:56,11:32:20,NA,incomplete,226,gender,3,1,left,A_M_04.jpg,C_M_07.jpg,A_F_14.jpg,left,661.835000035353,true,low,NA,NA,NA,NA,NA,NA,NA,false
KCHQWMb2,3kqc8jmjhf51pencp85cgosduim3h1,3z4gs9hpnznoksgh5drsrcbq88g776,KCHQWMb2,2020-0188,2020-06-04,10:45:56,11:32:20,NA,incomplete,227,gender,3,0,left,A_F_10.jpg,C_F_11.jpg,A_M_05.jpg,left,751.3150000013411,true,low,NA,NA,NA,NA,NA,NA,NA,false
KCHQWMb2,3kqc8jmjhf51pencp85cgosduim3h1,3z4gs9hpnznoksgh5drsrcbq88g776,KCHQWMb2,2020-0188,2020-06-04,10:45:56,11:32:20,NA,incomplete,228,gender,3,1,right,C_F_01.jpg,C_M_02.jpg,A_F_08.jpg,right,826.7200000118464,true,low,NA,NA,NA,NA,NA,NA,NA,false
KCHQWMb2,3kqc8jmjhf51pencp85cgosduim3h1,3z4gs9hpnznoksgh5drsrcbq88g776,KCHQWMb2,2020-0188,2020-06-04,10:45:56,11:32:20,NA,incomplete,229,gender,3,1,left,A_F_14.jpg,C_F_08.jpg,A_M_05.jpg,right,749.6900000842288,false,low,NA,NA,NA,NA,NA,NA,NA,false
KCHQWMb2,3kqc8jmjhf51pencp85cgosduim3h1,3z4gs9hpnznoksgh5drsrcbq88g776,KCHQWMb2,2020-0188,2020-06-04,10:45:56,11:32:20,NA,incomplete,230,gender,3,1,left,A_F_07.jpg,C_F_11.jpg,A_M_03.jpg,left,950.4400000441819,true,low,NA,NA,NA,NA,NA,NA,NA,false
KCHQWMb2,3kqc8jmjhf51pencp85cgosduim3h1,3z4gs9hpnznoksgh5drsrcbq88g776,KCHQWMb2,2020-0188,2020-06-04,10:45:56,11:32:20,NA,incomplete,231,gender,3,0,right,C_F_05.jpg,C_M_08.jpg,A_F_12.jpg,right,802.6799999643117,true,low,NA,NA,NA,NA,NA,NA,NA,false
KCHQWMb2,3kqc8jmjhf51pencp85cgosduim3h1,3z4gs9hpnznoksgh5drsrcbq88g776,KCHQWMb2,2020-0188,2020-06-04,10:45:56,11:32:20,NA,incomplete,232,gender,3,1,left,A_M_04.jpg,C_M_05.jpg,A_F_10.jpg,left,791.3249999983236,true,low,NA,NA,NA,NA,NA,NA,NA,false
KCHQWMb2,3kqc8jmjhf51pencp85cgosduim3h1,3z4gs9hpnznoksgh5drsrcbq88g776,KCHQWMb2,2020-0188,2020-06-04,10:45:56,11:32:20,NA,incomplete,233,gender,3,1,right,A_F_01.jpg,A_M_05.jpg,C_F_02.jpg,right,736.6900000488386,true,low,NA,NA,NA,NA,NA,NA,NA,false
KCHQWMb2,3kqc8jmjhf51pencp85cgosduim3h1,3z4gs9hpnznoksgh5drsrcbq88g776,KCHQWMb2,2020-0188,2020-06-04,10:45:56,11:32:20,NA,incomplete,234,gender,3,0,right,A_M_13.jpg,A_F_08.jpg,C_M_04.jpg,left,851.1599999619648,false,low,NA,NA,NA,NA,NA,NA,NA,false
KCHQWMb2,3kqc8jmjhf51pencp85cgosduim3h1,3z4gs9hpnznoksgh5drsrcbq88g776,KCHQWMb2,2020-0188,2020-06-04,10:45:56,11:32:20,NA,incomplete,235,gender,3,1,right,A_F_06.jpg,A_M_07.jpg,C_F_09.jpg,right,680.0299999304116,true,low,NA,NA,NA,NA,NA,NA,NA,false
KCHQWMb2,3kqc8jmjhf51pencp85cgosduim3h1,3z4gs9hpnznoksgh5drsrcbq88g776,KCHQWMb2,2020-0188,2020-06-04,10:45:56,11:32:20,NA,incomplete,236,gender,3,1,left,C_M_03.jpg,A_M_06.jpg,C_F_15.jpg,right,641.4100000401959,false,low,NA,NA,NA,NA,NA,NA,NA,false
KCHQWMb2,3kqc8jmjhf51pencp85cgosduim3h1,3z4gs9hpnznoksgh5drsrcbq88g776,KCHQWMb2,2020-0188,2020-06-04,10:45:56,11:32:20,NA,incomplete,237,gender,3,0,left,A_M_06.jpg,C_M_03.jpg,A_F_04.jpg,left,490.46500003896654,true,low,NA,NA,NA,NA,NA,NA,NA,false
KCHQWMb2,3kqc8jmjhf51pencp85cgosduim3h1,3z4gs9hpnznoksgh5drsrcbq88g776,KCHQWMb2,2020-0188,2020-06-04,10:45:56,11:32:20,NA,incomplete,238,gender,3,1,right,A_F_06.jpg,A_M_05.jpg,C_F_13.jpg,right,427.2600000258535,true,low,NA,NA,NA,NA,NA,NA,NA,false
KCHQWMb2,3kqc8jmjhf51pencp85cgosduim3h1,3z4gs9hpnznoksgh5drsrcbq88g776,KCHQWMb2,2020-0188,2020-06-04,10:45:56,11:32:20,NA,incomplete,239,gender,3,1,left,A_M_08.jpg,C_M_13.jpg,A_F_01.jpg,left,1226.7350000329316,true,low,NA,NA,NA,NA,NA,NA,NA,false
KCHQWMb2,3kqc8jmjhf51pencp85cgosduim3h1,3z4gs9hpnznoksgh5drsrcbq88g776,KCHQWMb2,2020-0188,2020-06-04,10:45:56,11:32:20,NA,NA,instruction example,shape,NA,NA,NA,Red_Plus_Dots_1.jpg,Green_Plus_Stripes_4.jpg,Purple_Star_Chess_1.jpg,NA,NA,NA,NA,NA,NA,NA,NA,NA,NA,NA,undefined
KCHQWMb2,3kqc8jmjhf51pencp85cgosduim3h1,3z4gs9hpnznoksgh5drsrcbq88g776,KCHQWMb2,2020-0188,2020-06-04,10:45:56,11:32:20,NA,NA,instruction example,shape,NA,NA,NA,Green_Star_Chess_1.jpg,Blue_Circle_Dots_1.jpg,Purple_Star_Stripes_4.jpg,NA,NA,NA,NA,NA,NA,NA,NA,NA,NA,NA,undefined
KCHQWMb2,3kqc8jmjhf51pencp85cgosduim3h1,3z4gs9hpnznoksgh5drsrcbq88g776,KCHQWMb2,2020-0188,2020-06-04,10:45:56,11:32:20,NA,NA,instruction example,shape,NA,NA,NA,C_F_11.jpg,C_M_07.jpg,A_F_13.jpg,NA,NA,NA,NA,NA,NA,NA,NA,NA,NA,NA,undefined
KCHQWMb2,3kqc8jmjhf51pencp85cgosduim3h1,3z4gs9hpnznoksgh5drsrcbq88g776,KCHQWMb2,2020-0188,2020-06-04,10:45:56,11:32:20,NA,NA,instruction example,shape,NA,NA,NA,A_F_05.jpg,C_F_11.jpg,A_M_07.jpg,NA,NA,NA,NA,NA,NA,NA,NA,NA,NA,NA,undefined
KCHQWMb2,3kqc8jmjhf51pencp85cgosduim3h1,3z4gs9hpnznoksgh5drsrcbq88g776,KCHQWMb2,2020-0188,2020-06-04,10:45:56,11:32:20,2752144.3699999945,2788682.0249999873,NA,NA,NA,NA,NA,NA,NA,NA,NA,NA,NA,NA,231,Black/African American,Male,african,no,no,no,undefined
