workerId,hitId,assignmentId,subject,studyid,exp_date,exp_start,exp_end,time_start,time_end,trial,type,sequence,reward_validity,answer,image_top,image_left,image_right,response,response_time,response_acc,volatility,age,race,gender,ethnicity,color,vision,neuro,practice
hsmPaVMi,3t5zxgo9eh1fn0t8t5nft3pt661qzj,3z7ishfuh48b4gr6ydbhww0lp4jz8x,hsmPaVMi,2020-0188,2020-11-17,19:47:51,20:08:51,NA,incomplete,0,color,0,1,left,Red_Star_Stripes_4.jpg,Red_Plus_Dots_1.jpg,Blue_Circle_Stripes_3.jpg,left,1206.2649999861605,true,NA,NA,NA,NA,NA,NA,NA,NA,true
hsmPaVMi,3t5zxgo9eh1fn0t8t5nft3pt661qzj,3z7ishfuh48b4gr6ydbhww0lp4jz8x,hsmPaVMi,2020-0188,2020-11-17,19:47:51,20:08:51,NA,incomplete,1,color,0,1,right,Green_Star_Grid_4.jpg,Blue_Plus_Grid_2.jpg,Green_Circle_Chess_3.jpg,right,618.5999999870546,true,NA,NA,NA,NA,NA,NA,NA,NA,true
hsmPaVMi,3t5zxgo9eh1fn0t8t5nft3pt661qzj,3z7ishfuh48b4gr6ydbhww0lp4jz8x,hsmPaVMi,2020-0188,2020-11-17,19:47:51,20:08:51,NA,incomplete,2,color,0,0,right,Purple_Circle_Grid_3.jpg,Red_Plus_Grid_4.jpg,Purple_Triangle_Chess_2.jpg,right,557.9949999810196,true,NA,NA,NA,NA,NA,NA,NA,NA,true
hsmPaVMi,3t5zxgo9eh1fn0t8t5nft3pt661qzj,3z7ishfuh48b4gr6ydbhww0lp4jz8x,hsmPaVMi,2020-0188,2020-11-17,19:47:51,20:08:51,NA,incomplete,3,color,0,1,left,Green_Triangle_Grid_3.jpg,Green_Circle_Stripes_4.jpg,Red_Star_Grid_2.jpg,left,726.4900000300258,true,NA,NA,NA,NA,NA,NA,NA,NA,true
hsmPaVMi,3t5zxgo9eh1fn0t8t5nft3pt661qzj,3z7ishfuh48b4gr6ydbhww0lp4jz8x,hsmPaVMi,2020-0188,2020-11-17,19:47:51,20:08:51,NA,incomplete,4,color,0,1,right,Purple_Circle_Grid_4.jpg,Red_Plus_Grid_2.jpg,Purple_Triangle_Dots_3.jpg,right,980.6550000212155,true,NA,NA,NA,NA,NA,NA,NA,NA,true
hsmPaVMi,3t5zxgo9eh1fn0t8t5nft3pt661qzj,3z7ishfuh48b4gr6ydbhww0lp4jz8x,hsmPaVMi,2020-0188,2020-11-17,19:47:51,20:08:51,NA,incomplete,5,color,0,1,left,Blue_Circle_Stripes_1.jpg,Blue_Plus_Grid_2.jpg,Red_Triangle_Stripes_4.jpg,left,862.1100000455044,true,NA,NA,NA,NA,NA,NA,NA,NA,true
hsmPaVMi,3t5zxgo9eh1fn0t8t5nft3pt661qzj,3z7ishfuh48b4gr6ydbhww0lp4jz8x,hsmPaVMi,2020-0188,2020-11-17,19:47:51,20:08:51,NA,incomplete,6,color,0,1,left,Green_Triangle_Dots_2.jpg,Green_Plus_Stripes_1.jpg,Purple_Circle_Dots_4.jpg,left,584.9799999850802,true,NA,NA,NA,NA,NA,NA,NA,NA,true
hsmPaVMi,3t5zxgo9eh1fn0t8t5nft3pt661qzj,3z7ishfuh48b4gr6ydbhww0lp4jz8x,hsmPaVMi,2020-0188,2020-11-17,19:47:51,20:08:51,NA,incomplete,7,color,0,1,left,Red_Triangle_Chess_1.jpg,Red_Star_Stripes_2.jpg,Purple_Circle_Chess_3.jpg,left,698.1099999975413,true,NA,NA,NA,NA,NA,NA,NA,NA,true
hsmPaVMi,3t5zxgo9eh1fn0t8t5nft3pt661qzj,3z7ishfuh48b4gr6ydbhww0lp4jz8x,hsmPaVMi,2020-0188,2020-11-17,19:47:51,20:08:51,NA,incomplete,8,color,0,1,right,Green_Star_Stripes_4.jpg,Purple_Triangle_Stripes_2.jpg,Green_Plus_Chess_1.jpg,right,753.1600000220351,true,NA,NA,NA,NA,NA,NA,NA,NA,true
hsmPaVMi,3t5zxgo9eh1fn0t8t5nft3pt661qzj,3z7ishfuh48b4gr6ydbhww0lp4jz8x,hsmPaVMi,2020-0188,2020-11-17,19:47:51,20:08:51,NA,incomplete,9,color,0,1,left,Green_Plus_Grid_4.jpg,Green_Triangle_Dots_3.jpg,Purple_Circle_Grid_1.jpg,left,554.6099999919534,true,NA,NA,NA,NA,NA,NA,NA,NA,true
hsmPaVMi,3t5zxgo9eh1fn0t8t5nft3pt661qzj,3z7ishfuh48b4gr6ydbhww0lp4jz8x,hsmPaVMi,2020-0188,2020-11-17,19:47:51,20:08:51,NA,incomplete,10,color,0,1,right,Blue_Plus_Chess_4.jpg,Green_Circle_Chess_3.jpg,Blue_Triangle_Grid_2.jpg,right,618.3299999684095,true,NA,NA,NA,NA,NA,NA,NA,NA,true
hsmPaVMi,3t5zxgo9eh1fn0t8t5nft3pt661qzj,3z7ishfuh48b4gr6ydbhww0lp4jz8x,hsmPaVMi,2020-0188,2020-11-17,19:47:51,20:08:51,NA,incomplete,11,color,0,0,left,Blue_Plus_Grid_1.jpg,Blue_Triangle_Stripes_4.jpg,Purple_Star_Grid_3.jpg,left,637.4749999959022,true,NA,NA,NA,NA,NA,NA,NA,NA,true
hsmPaVMi,3t5zxgo9eh1fn0t8t5nft3pt661qzj,3z7ishfuh48b4gr6ydbhww0lp4jz8x,hsmPaVMi,2020-0188,2020-11-17,19:47:51,20:08:51,NA,incomplete,12,color,0,1,right,Green_Plus_Chess_3.jpg,Purple_Triangle_Chess_4.jpg,Green_Circle_Stripes_1.jpg,right,763.4550000075251,true,NA,NA,NA,NA,NA,NA,NA,NA,true
hsmPaVMi,3t5zxgo9eh1fn0t8t5nft3pt661qzj,3z7ishfuh48b4gr6ydbhww0lp4jz8x,hsmPaVMi,2020-0188,2020-11-17,19:47:51,20:08:51,NA,incomplete,13,color,0,1,right,Purple_Plus_Dots_2.jpg,Blue_Circle_Dots_1.jpg,Purple_Star_Chess_3.jpg,right,710.7199999736622,true,NA,NA,NA,NA,NA,NA,NA,NA,true
hsmPaVMi,3t5zxgo9eh1fn0t8t5nft3pt661qzj,3z7ishfuh48b4gr6ydbhww0lp4jz8x,hsmPaVMi,2020-0188,2020-11-17,19:47:51,20:08:51,NA,incomplete,14,color,0,1,right,Green_Circle_Dots_3.jpg,Blue_Plus_Dots_1.jpg,Green_Star_Stripes_4.jpg,right,627.9149999609217,true,NA,NA,NA,NA,NA,NA,NA,NA,true
hsmPaVMi,3t5zxgo9eh1fn0t8t5nft3pt661qzj,3z7ishfuh48b4gr6ydbhww0lp4jz8x,hsmPaVMi,2020-0188,2020-11-17,19:47:51,20:08:51,NA,incomplete,15,color,0,1,right,Purple_Star_Grid_4.jpg,Green_Plus_Grid_2.jpg,Purple_Triangle_Chess_3.jpg,right,815.085000009276,true,NA,NA,NA,NA,NA,NA,NA,NA,true
hsmPaVMi,3t5zxgo9eh1fn0t8t5nft3pt661qzj,3z7ishfuh48b4gr6ydbhww0lp4jz8x,hsmPaVMi,2020-0188,2020-11-17,19:47:51,20:08:51,NA,incomplete,16,color,0,1,right,Blue_Star_Grid_3.jpg,Red_Triangle_Grid_2.jpg,Blue_Circle_Dots_4.jpg,right,746.8799999915063,true,NA,NA,NA,NA,NA,NA,NA,NA,true
hsmPaVMi,3t5zxgo9eh1fn0t8t5nft3pt661qzj,3z7ishfuh48b4gr6ydbhww0lp4jz8x,hsmPaVMi,2020-0188,2020-11-17,19:47:51,20:08:51,NA,incomplete,17,color,0,1,left,Purple_Triangle_Stripes_1.jpg,Purple_Circle_Chess_4.jpg,Red_Plus_Stripes_3.jpg,left,697.5099999690428,true,NA,NA,NA,NA,NA,NA,NA,NA,true
hsmPaVMi,3t5zxgo9eh1fn0t8t5nft3pt661qzj,3z7ishfuh48b4gr6ydbhww0lp4jz8x,hsmPaVMi,2020-0188,2020-11-17,19:47:51,20:08:51,NA,incomplete,18,color,0,0,left,Purple_Triangle_Dots_2.jpg,Purple_Circle_Stripes_1.jpg,Red_Star_Dots_3.jpg,left,564.5700000459328,true,NA,NA,NA,NA,NA,NA,NA,NA,true
hsmPaVMi,3t5zxgo9eh1fn0t8t5nft3pt661qzj,3z7ishfuh48b4gr6ydbhww0lp4jz8x,hsmPaVMi,2020-0188,2020-11-17,19:47:51,20:08:51,NA,incomplete,19,color,0,0,left,Blue_Plus_Chess_3.jpg,Blue_Triangle_Dots_1.jpg,Red_Star_Chess_4.jpg,left,621.2299999897368,true,NA,NA,NA,NA,NA,NA,NA,NA,true
hsmPaVMi,3t5zxgo9eh1fn0t8t5nft3pt661qzj,3z7ishfuh48b4gr6ydbhww0lp4jz8x,hsmPaVMi,2020-0188,2020-11-17,19:47:51,20:08:51,NA,incomplete,20,filling,1,0,right,Green_Triangle_Grid_1.jpg,Green_Circle_Dots_4.jpg,Red_Star_Grid_3.jpg,right,1737.9250000230968,true,NA,NA,NA,NA,NA,NA,NA,NA,true
hsmPaVMi,3t5zxgo9eh1fn0t8t5nft3pt661qzj,3z7ishfuh48b4gr6ydbhww0lp4jz8x,hsmPaVMi,2020-0188,2020-11-17,19:47:51,20:08:51,NA,incomplete,21,filling,1,1,right,Green_Triangle_Grid_3.jpg,Green_Plus_Dots_1.jpg,Red_Circle_Grid_4.jpg,right,879.2800000519492,true,NA,NA,NA,NA,NA,NA,NA,NA,true
hsmPaVMi,3t5zxgo9eh1fn0t8t5nft3pt661qzj,3z7ishfuh48b4gr6ydbhww0lp4jz8x,hsmPaVMi,2020-0188,2020-11-17,19:47:51,20:08:51,NA,incomplete,22,filling,1,1,left,Red_Star_Chess_1.jpg,Green_Plus_Chess_2.jpg,Red_Triangle_Stripes_4.jpg,left,1594.760000007227,true,NA,NA,NA,NA,NA,NA,NA,NA,true
hsmPaVMi,3t5zxgo9eh1fn0t8t5nft3pt661qzj,3z7ishfuh48b4gr6ydbhww0lp4jz8x,hsmPaVMi,2020-0188,2020-11-17,19:47:51,20:08:51,NA,incomplete,23,filling,1,1,left,Purple_Triangle_Stripes_4.jpg,Blue_Plus_Stripes_2.jpg,Purple_Circle_Chess_3.jpg,left,961.4449999644421,true,NA,NA,NA,NA,NA,NA,NA,NA,true
hsmPaVMi,3t5zxgo9eh1fn0t8t5nft3pt661qzj,3z7ishfuh48b4gr6ydbhww0lp4jz8x,hsmPaVMi,2020-0188,2020-11-17,19:47:51,20:08:51,NA,incomplete,24,filling,1,1,left,Blue_Triangle_Chess_3.jpg,Green_Circle_Chess_1.jpg,Blue_Plus_Stripes_4.jpg,left,1122.1550000482239,true,NA,NA,NA,NA,NA,NA,NA,NA,true
hsmPaVMi,3t5zxgo9eh1fn0t8t5nft3pt661qzj,3z7ishfuh48b4gr6ydbhww0lp4jz8x,hsmPaVMi,2020-0188,2020-11-17,19:47:51,20:08:51,NA,incomplete,25,filling,1,0,left,Blue_Triangle_Dots_1.jpg,Red_Plus_Dots_3.jpg,Blue_Star_Stripes_4.jpg,left,1331.6849999828264,true,NA,NA,NA,NA,NA,NA,NA,NA,true
hsmPaVMi,3t5zxgo9eh1fn0t8t5nft3pt661qzj,3z7ishfuh48b4gr6ydbhww0lp4jz8x,hsmPaVMi,2020-0188,2020-11-17,19:47:51,20:08:51,NA,incomplete,26,filling,1,1,right,Green_Star_Grid_2.jpg,Green_Circle_Dots_1.jpg,Blue_Plus_Grid_4.jpg,right,1054.9800000153482,true,NA,NA,NA,NA,NA,NA,NA,NA,true
hsmPaVMi,3t5zxgo9eh1fn0t8t5nft3pt661qzj,3z7ishfuh48b4gr6ydbhww0lp4jz8x,hsmPaVMi,2020-0188,2020-11-17,19:47:51,20:08:51,NA,incomplete,27,filling,1,1,left,Blue_Plus_Chess_4.jpg,Red_Star_Chess_3.jpg,Blue_Circle_Stripes_1.jpg,left,1028.3150000032037,true,NA,NA,NA,NA,NA,NA,NA,NA,true
hsmPaVMi,3t5zxgo9eh1fn0t8t5nft3pt661qzj,3z7ishfuh48b4gr6ydbhww0lp4jz8x,hsmPaVMi,2020-0188,2020-11-17,19:47:51,20:08:51,NA,incomplete,28,filling,1,1,right,Purple_Triangle_Grid_4.jpg,Purple_Circle_Chess_1.jpg,Green_Plus_Grid_2.jpg,right,980.8649999904446,true,NA,NA,NA,NA,NA,NA,NA,NA,true
hsmPaVMi,3t5zxgo9eh1fn0t8t5nft3pt661qzj,3z7ishfuh48b4gr6ydbhww0lp4jz8x,hsmPaVMi,2020-0188,2020-11-17,19:47:51,20:08:51,NA,incomplete,29,filling,1,1,left,Red_Star_Dots_4.jpg,Blue_Triangle_Dots_2.jpg,Red_Plus_Stripes_3.jpg,left,1062.3849999974482,true,NA,NA,NA,NA,NA,NA,NA,NA,true
hsmPaVMi,3t5zxgo9eh1fn0t8t5nft3pt661qzj,3z7ishfuh48b4gr6ydbhww0lp4jz8x,hsmPaVMi,2020-0188,2020-11-17,19:47:51,20:08:51,NA,incomplete,30,filling,1,1,left,Blue_Circle_Chess_2.jpg,Purple_Star_Chess_4.jpg,Blue_Triangle_Grid_1.jpg,left,979.4750000000931,true,NA,NA,NA,NA,NA,NA,NA,NA,true
hsmPaVMi,3t5zxgo9eh1fn0t8t5nft3pt661qzj,3z7ishfuh48b4gr6ydbhww0lp4jz8x,hsmPaVMi,2020-0188,2020-11-17,19:47:51,20:08:51,NA,incomplete,31,filling,1,1,right,Purple_Circle_Chess_4.jpg,Purple_Plus_Dots_2.jpg,Red_Triangle_Chess_1.jpg,right,882.1250000037253,true,NA,NA,NA,NA,NA,NA,NA,NA,true
hsmPaVMi,3t5zxgo9eh1fn0t8t5nft3pt661qzj,3z7ishfuh48b4gr6ydbhww0lp4jz8x,hsmPaVMi,2020-0188,2020-11-17,19:47:51,20:08:51,NA,incomplete,32,filling,1,1,left,Red_Circle_Chess_1.jpg,Green_Triangle_Chess_3.jpg,Red_Plus_Grid_4.jpg,left,850.4100000136532,true,NA,NA,NA,NA,NA,NA,NA,NA,true
hsmPaVMi,3t5zxgo9eh1fn0t8t5nft3pt661qzj,3z7ishfuh48b4gr6ydbhww0lp4jz8x,hsmPaVMi,2020-0188,2020-11-17,19:47:51,20:08:51,NA,incomplete,33,filling,1,1,left,Purple_Triangle_Stripes_3.jpg,Green_Plus_Stripes_2.jpg,Purple_Circle_Grid_4.jpg,left,813.2199999527074,true,NA,NA,NA,NA,NA,NA,NA,NA,true
hsmPaVMi,3t5zxgo9eh1fn0t8t5nft3pt661qzj,3z7ishfuh48b4gr6ydbhww0lp4jz8x,hsmPaVMi,2020-0188,2020-11-17,19:47:51,20:08:51,NA,incomplete,34,filling,1,1,left,Purple_Circle_Stripes_1.jpg,Blue_Triangle_Stripes_3.jpg,Purple_Plus_Chess_4.jpg,left,762.7549999742769,true,NA,NA,NA,NA,NA,NA,NA,NA,true
hsmPaVMi,3t5zxgo9eh1fn0t8t5nft3pt661qzj,3z7ishfuh48b4gr6ydbhww0lp4jz8x,hsmPaVMi,2020-0188,2020-11-17,19:47:51,20:08:51,NA,incomplete,35,filling,1,1,left,Green_Plus_Grid_1.jpg,Blue_Star_Grid_3.jpg,Green_Triangle_Dots_4.jpg,left,846.2949999957345,true,NA,NA,NA,NA,NA,NA,NA,NA,true
hsmPaVMi,3t5zxgo9eh1fn0t8t5nft3pt661qzj,3z7ishfuh48b4gr6ydbhww0lp4jz8x,hsmPaVMi,2020-0188,2020-11-17,19:47:51,20:08:51,NA,incomplete,36,filling,1,1,right,Blue_Triangle_Dots_2.jpg,Blue_Star_Chess_4.jpg,Red_Plus_Dots_1.jpg,right,1183.1949999905191,true,NA,NA,NA,NA,NA,NA,NA,NA,true
hsmPaVMi,3t5zxgo9eh1fn0t8t5nft3pt661qzj,3z7ishfuh48b4gr6ydbhww0lp4jz8x,hsmPaVMi,2020-0188,2020-11-17,19:47:51,20:08:51,NA,incomplete,37,filling,1,1,left,Green_Plus_Grid_1.jpg,Red_Circle_Grid_3.jpg,Green_Triangle_Chess_4.jpg,left,976.7000000574626,true,NA,NA,NA,NA,NA,NA,NA,NA,true
hsmPaVMi,3t5zxgo9eh1fn0t8t5nft3pt661qzj,3z7ishfuh48b4gr6ydbhww0lp4jz8x,hsmPaVMi,2020-0188,2020-11-17,19:47:51,20:08:51,NA,incomplete,38,filling,1,0,left,Red_Plus_Chess_2.jpg,Blue_Circle_Chess_1.jpg,Red_Triangle_Dots_4.jpg,left,886.6500000003725,true,NA,NA,NA,NA,NA,NA,NA,NA,true
hsmPaVMi,3t5zxgo9eh1fn0t8t5nft3pt661qzj,3z7ishfuh48b4gr6ydbhww0lp4jz8x,hsmPaVMi,2020-0188,2020-11-17,19:47:51,20:08:51,NA,incomplete,39,filling,1,0,right,Blue_Plus_Chess_2.jpg,Blue_Circle_Grid_1.jpg,Red_Star_Chess_4.jpg,right,953.6349999834783,true,NA,NA,NA,NA,NA,NA,NA,NA,true
hsmPaVMi,3t5zxgo9eh1fn0t8t5nft3pt661qzj,3z7ishfuh48b4gr6ydbhww0lp4jz8x,hsmPaVMi,2020-0188,2020-11-17,19:47:51,20:08:51,NA,incomplete,0,color,0,1,right,Red_Star_Stripes_4.jpg,Green_Plus_Stripes_3.jpg,Red_Circle_Chess_1.jpg,left,1465.4399999999441,false,low,NA,NA,NA,NA,NA,NA,NA,false
hsmPaVMi,3t5zxgo9eh1fn0t8t5nft3pt661qzj,3z7ishfuh48b4gr6ydbhww0lp4jz8x,hsmPaVMi,2020-0188,2020-11-17,19:47:51,20:08:51,NA,incomplete,1,color,0,0,left,Red_Star_Dots_2.jpg,Red_Plus_Grid_3.jpg,Purple_Triangle_Dots_4.jpg,right,1210.6299999868497,false,low,NA,NA,NA,NA,NA,NA,NA,false
hsmPaVMi,3t5zxgo9eh1fn0t8t5nft3pt661qzj,3z7ishfuh48b4gr6ydbhww0lp4jz8x,hsmPaVMi,2020-0188,2020-11-17,19:47:51,20:08:51,NA,incomplete,2,color,0,0,left,Green_Circle_Grid_4.jpg,Green_Star_Chess_2.jpg,Purple_Plus_Grid_1.jpg,right,911.4050000207499,false,low,NA,NA,NA,NA,NA,NA,NA,false
hsmPaVMi,3t5zxgo9eh1fn0t8t5nft3pt661qzj,3z7ishfuh48b4gr6ydbhww0lp4jz8x,hsmPaVMi,2020-0188,2020-11-17,19:47:51,20:08:51,NA,incomplete,3,color,0,1,left,Red_Triangle_Chess_3.jpg,Red_Plus_Stripes_4.jpg,Purple_Star_Chess_2.jpg,right,997.0800000010058,false,low,NA,NA,NA,NA,NA,NA,NA,false
hsmPaVMi,3t5zxgo9eh1fn0t8t5nft3pt661qzj,3z7ishfuh48b4gr6ydbhww0lp4jz8x,hsmPaVMi,2020-0188,2020-11-17,19:47:51,20:08:51,NA,incomplete,4,color,0,0,left,Purple_Star_Dots_1.jpg,Purple_Circle_Chess_2.jpg,Green_Plus_Dots_3.jpg,right,924.5250000385568,false,low,NA,NA,NA,NA,NA,NA,NA,false
hsmPaVMi,3t5zxgo9eh1fn0t8t5nft3pt661qzj,3z7ishfuh48b4gr6ydbhww0lp4jz8x,hsmPaVMi,2020-0188,2020-11-17,19:47:51,20:08:51,NA,incomplete,5,color,0,0,right,Green_Triangle_Dots_2.jpg,Blue_Star_Dots_3.jpg,Green_Circle_Grid_4.jpg,left,968.3749999967404,false,low,NA,NA,NA,NA,NA,NA,NA,false
hsmPaVMi,3t5zxgo9eh1fn0t8t5nft3pt661qzj,3z7ishfuh48b4gr6ydbhww0lp4jz8x,hsmPaVMi,2020-0188,2020-11-17,19:47:51,20:08:51,NA,incomplete,6,color,0,0,left,Blue_Circle_Stripes_4.jpg,Blue_Star_Grid_2.jpg,Red_Plus_Stripes_3.jpg,right,1042.6699999952689,false,low,NA,NA,NA,NA,NA,NA,NA,false
hsmPaVMi,3t5zxgo9eh1fn0t8t5nft3pt661qzj,3z7ishfuh48b4gr6ydbhww0lp4jz8x,hsmPaVMi,2020-0188,2020-11-17,19:47:51,20:08:51,NA,incomplete,7,color,0,1,right,Green_Triangle_Dots_3.jpg,Red_Circle_Dots_2.jpg,Green_Plus_Chess_4.jpg,left,917.7700000000186,false,low,NA,NA,NA,NA,NA,NA,NA,false
hsmPaVMi,3t5zxgo9eh1fn0t8t5nft3pt661qzj,3z7ishfuh48b4gr6ydbhww0lp4jz8x,hsmPaVMi,2020-0188,2020-11-17,19:47:51,20:08:51,NA,incomplete,8,color,0,1,left,Purple_Star_Dots_4.jpg,Purple_Circle_Chess_2.jpg,Green_Plus_Dots_3.jpg,right,941.7499999981374,false,low,NA,NA,NA,NA,NA,NA,NA,false
hsmPaVMi,3t5zxgo9eh1fn0t8t5nft3pt661qzj,3z7ishfuh48b4gr6ydbhww0lp4jz8x,hsmPaVMi,2020-0188,2020-11-17,19:47:51,20:08:51,NA,incomplete,9,color,0,1,left,Blue_Triangle_Stripes_1.jpg,Blue_Star_Grid_3.jpg,Red_Circle_Stripes_2.jpg,right,1337.4600000097416,false,low,NA,NA,NA,NA,NA,NA,NA,false
hsmPaVMi,3t5zxgo9eh1fn0t8t5nft3pt661qzj,3z7ishfuh48b4gr6ydbhww0lp4jz8x,hsmPaVMi,2020-0188,2020-11-17,19:47:51,20:08:51,NA,incomplete,10,filling,1,0,right,Green_Triangle_Dots_4.jpg,Green_Plus_Chess_1.jpg,Blue_Star_Dots_2.jpg,left,594.2150000482798,false,low,NA,NA,NA,NA,NA,NA,NA,false
hsmPaVMi,3t5zxgo9eh1fn0t8t5nft3pt661qzj,3z7ishfuh48b4gr6ydbhww0lp4jz8x,hsmPaVMi,2020-0188,2020-11-17,19:47:51,20:08:51,NA,incomplete,11,filling,1,1,right,Green_Star_Grid_4.jpg,Green_Circle_Stripes_2.jpg,Purple_Triangle_Grid_1.jpg,left,593.0799999623559,false,low,NA,NA,NA,NA,NA,NA,NA,false
hsmPaVMi,3t5zxgo9eh1fn0t8t5nft3pt661qzj,3z7ishfuh48b4gr6ydbhww0lp4jz8x,hsmPaVMi,2020-0188,2020-11-17,19:47:51,20:08:51,NA,incomplete,12,filling,1,1,left,Red_Plus_Chess_3.jpg,Purple_Circle_Chess_4.jpg,Red_Triangle_Dots_2.jpg,right,671.1849999846891,false,low,NA,NA,NA,NA,NA,NA,NA,false
hsmPaVMi,3t5zxgo9eh1fn0t8t5nft3pt661qzj,3z7ishfuh48b4gr6ydbhww0lp4jz8x,hsmPaVMi,2020-0188,2020-11-17,19:47:51,20:08:51,NA,incomplete,13,filling,1,1,right,Green_Circle_Grid_3.jpg,Green_Triangle_Dots_1.jpg,Purple_Plus_Grid_4.jpg,left,573.5250000143424,false,low,NA,NA,NA,NA,NA,NA,NA,false
hsmPaVMi,3t5zxgo9eh1fn0t8t5nft3pt661qzj,3z7ishfuh48b4gr6ydbhww0lp4jz8x,hsmPaVMi,2020-0188,2020-11-17,19:47:51,20:08:51,NA,incomplete,14,filling,1,1,left,Purple_Plus_Grid_1.jpg,Green_Circle_Grid_3.jpg,Purple_Triangle_Dots_4.jpg,left,1000.1000000047497,true,low,NA,NA,NA,NA,NA,NA,NA,false
hsmPaVMi,3t5zxgo9eh1fn0t8t5nft3pt661qzj,3z7ishfuh48b4gr6ydbhww0lp4jz8x,hsmPaVMi,2020-0188,2020-11-17,19:47:51,20:08:51,NA,incomplete,15,filling,1,1,left,Blue_Circle_Stripes_4.jpg,Red_Plus_Stripes_2.jpg,Blue_Star_Chess_1.jpg,left,1028.394999972079,true,low,NA,NA,NA,NA,NA,NA,NA,false
hsmPaVMi,3t5zxgo9eh1fn0t8t5nft3pt661qzj,3z7ishfuh48b4gr6ydbhww0lp4jz8x,hsmPaVMi,2020-0188,2020-11-17,19:47:51,20:08:51,NA,incomplete,16,filling,1,0,right,Green_Plus_Dots_3.jpg,Green_Triangle_Grid_1.jpg,Red_Star_Dots_2.jpg,right,1038.9899999718182,true,low,NA,NA,NA,NA,NA,NA,NA,false
hsmPaVMi,3t5zxgo9eh1fn0t8t5nft3pt661qzj,3z7ishfuh48b4gr6ydbhww0lp4jz8x,hsmPaVMi,2020-0188,2020-11-17,19:47:51,20:08:51,NA,incomplete,17,filling,1,1,left,Purple_Plus_Stripes_4.jpg,Red_Triangle_Stripes_1.jpg,Purple_Circle_Grid_2.jpg,left,1301.4349999721162,true,low,NA,NA,NA,NA,NA,NA,NA,false
hsmPaVMi,3t5zxgo9eh1fn0t8t5nft3pt661qzj,3z7ishfuh48b4gr6ydbhww0lp4jz8x,hsmPaVMi,2020-0188,2020-11-17,19:47:51,20:08:51,NA,incomplete,18,filling,1,1,left,Blue_Plus_Dots_4.jpg,Green_Triangle_Dots_3.jpg,Blue_Circle_Grid_1.jpg,left,1045.1200000243261,true,low,NA,NA,NA,NA,NA,NA,NA,false
hsmPaVMi,3t5zxgo9eh1fn0t8t5nft3pt661qzj,3z7ishfuh48b4gr6ydbhww0lp4jz8x,hsmPaVMi,2020-0188,2020-11-17,19:47:51,20:08:51,NA,incomplete,19,filling,1,1,right,Red_Star_Stripes_2.jpg,Red_Triangle_Chess_1.jpg,Green_Circle_Stripes_4.jpg,right,998.2799999997951,true,low,NA,NA,NA,NA,NA,NA,NA,false
hsmPaVMi,3t5zxgo9eh1fn0t8t5nft3pt661qzj,3z7ishfuh48b4gr6ydbhww0lp4jz8x,hsmPaVMi,2020-0188,2020-11-17,19:47:51,20:08:51,NA,incomplete,20,color,0,1,right,Blue_Circle_Grid_1.jpg,Purple_Star_Grid_4.jpg,Blue_Plus_Dots_2.jpg,left,1130.959999980405,false,low,NA,NA,NA,NA,NA,NA,NA,false
hsmPaVMi,3t5zxgo9eh1fn0t8t5nft3pt661qzj,3z7ishfuh48b4gr6ydbhww0lp4jz8x,hsmPaVMi,2020-0188,2020-11-17,19:47:51,20:08:51,NA,incomplete,21,color,0,1,left,Blue_Star_Grid_1.jpg,Blue_Triangle_Dots_2.jpg,Green_Circle_Grid_3.jpg,right,1045.2300000470132,false,low,NA,NA,NA,NA,NA,NA,NA,false
hsmPaVMi,3t5zxgo9eh1fn0t8t5nft3pt661qzj,3z7ishfuh48b4gr6ydbhww0lp4jz8x,hsmPaVMi,2020-0188,2020-11-17,19:47:51,20:08:51,NA,incomplete,22,color,0,0,left,Red_Triangle_Dots_1.jpg,Red_Star_Grid_3.jpg,Blue_Plus_Dots_4.jpg,left,1012.3650000314228,true,low,NA,NA,NA,NA,NA,NA,NA,false
hsmPaVMi,3t5zxgo9eh1fn0t8t5nft3pt661qzj,3z7ishfuh48b4gr6ydbhww0lp4jz8x,hsmPaVMi,2020-0188,2020-11-17,19:47:51,20:08:51,NA,incomplete,23,color,0,1,right,Blue_Plus_Grid_2.jpg,Red_Star_Grid_1.jpg,Blue_Circle_Stripes_3.jpg,left,889.9000000092201,false,low,NA,NA,NA,NA,NA,NA,NA,false
hsmPaVMi,3t5zxgo9eh1fn0t8t5nft3pt661qzj,3z7ishfuh48b4gr6ydbhww0lp4jz8x,hsmPaVMi,2020-0188,2020-11-17,19:47:51,20:08:51,NA,incomplete,24,color,0,0,left,Red_Star_Stripes_4.jpg,Red_Triangle_Chess_2.jpg,Green_Plus_Stripes_3.jpg,left,788.8699999894015,true,low,NA,NA,NA,NA,NA,NA,NA,false
hsmPaVMi,3t5zxgo9eh1fn0t8t5nft3pt661qzj,3z7ishfuh48b4gr6ydbhww0lp4jz8x,hsmPaVMi,2020-0188,2020-11-17,19:47:51,20:08:51,NA,incomplete,25,color,0,1,left,Red_Plus_Chess_2.jpg,Red_Triangle_Stripes_1.jpg,Blue_Circle_Chess_4.jpg,right,1198.7349999835715,false,low,NA,NA,NA,NA,NA,NA,NA,false
hsmPaVMi,3t5zxgo9eh1fn0t8t5nft3pt661qzj,3z7ishfuh48b4gr6ydbhww0lp4jz8x,hsmPaVMi,2020-0188,2020-11-17,19:47:51,20:08:51,NA,incomplete,26,color,0,0,left,Purple_Plus_Stripes_2.jpg,Purple_Circle_Grid_1.jpg,Red_Star_Stripes_3.jpg,left,618.5350000159815,true,low,NA,NA,NA,NA,NA,NA,NA,false
hsmPaVMi,3t5zxgo9eh1fn0t8t5nft3pt661qzj,3z7ishfuh48b4gr6ydbhww0lp4jz8x,hsmPaVMi,2020-0188,2020-11-17,19:47:51,20:08:51,NA,incomplete,27,color,0,1,left,Blue_Star_Stripes_3.jpg,Blue_Triangle_Chess_1.jpg,Red_Circle_Stripes_4.jpg,left,505.82500000018626,true,low,NA,NA,NA,NA,NA,NA,NA,false
hsmPaVMi,3t5zxgo9eh1fn0t8t5nft3pt661qzj,3z7ishfuh48b4gr6ydbhww0lp4jz8x,hsmPaVMi,2020-0188,2020-11-17,19:47:51,20:08:51,NA,incomplete,28,color,0,1,left,Blue_Triangle_Dots_2.jpg,Blue_Circle_Stripes_3.jpg,Green_Star_Dots_1.jpg,left,746.6499999864027,true,low,NA,NA,NA,NA,NA,NA,NA,false
hsmPaVMi,3t5zxgo9eh1fn0t8t5nft3pt661qzj,3z7ishfuh48b4gr6ydbhww0lp4jz8x,hsmPaVMi,2020-0188,2020-11-17,19:47:51,20:08:51,NA,incomplete,29,color,0,1,right,Red_Plus_Grid_1.jpg,Green_Star_Grid_2.jpg,Red_Circle_Chess_4.jpg,right,742.5149999908172,true,low,NA,NA,NA,NA,NA,NA,NA,false
hsmPaVMi,3t5zxgo9eh1fn0t8t5nft3pt661qzj,3z7ishfuh48b4gr6ydbhww0lp4jz8x,hsmPaVMi,2020-0188,2020-11-17,19:47:51,20:08:51,NA,incomplete,30,filling,1,1,left,Red_Circle_Grid_2.jpg,Green_Star_Grid_1.jpg,Red_Triangle_Stripes_3.jpg,right,513.5199999785982,false,low,NA,NA,NA,NA,NA,NA,NA,false
hsmPaVMi,3t5zxgo9eh1fn0t8t5nft3pt661qzj,3z7ishfuh48b4gr6ydbhww0lp4jz8x,hsmPaVMi,2020-0188,2020-11-17,19:47:51,20:08:51,NA,incomplete,31,filling,1,1,left,Blue_Star_Chess_1.jpg,Green_Plus_Chess_4.jpg,Blue_Triangle_Stripes_3.jpg,right,800.9949999977835,false,low,NA,NA,NA,NA,NA,NA,NA,false
hsmPaVMi,3t5zxgo9eh1fn0t8t5nft3pt661qzj,3z7ishfuh48b4gr6ydbhww0lp4jz8x,hsmPaVMi,2020-0188,2020-11-17,19:47:51,20:08:51,NA,incomplete,32,filling,1,1,left,Blue_Plus_Grid_2.jpg,Red_Circle_Grid_4.jpg,Blue_Triangle_Stripes_3.jpg,right,501.09999999403954,false,low,NA,NA,NA,NA,NA,NA,NA,false
hsmPaVMi,3t5zxgo9eh1fn0t8t5nft3pt661qzj,3z7ishfuh48b4gr6ydbhww0lp4jz8x,hsmPaVMi,2020-0188,2020-11-17,19:47:51,20:08:51,NA,incomplete,33,filling,1,1,right,Purple_Star_Chess_1.jpg,Purple_Triangle_Grid_4.jpg,Blue_Plus_Chess_3.jpg,right,956.1200000462122,true,low,NA,NA,NA,NA,NA,NA,NA,false
hsmPaVMi,3t5zxgo9eh1fn0t8t5nft3pt661qzj,3z7ishfuh48b4gr6ydbhww0lp4jz8x,hsmPaVMi,2020-0188,2020-11-17,19:47:51,20:08:51,NA,incomplete,34,filling,1,1,right,Blue_Plus_Stripes_2.jpg,Blue_Triangle_Chess_4.jpg,Purple_Circle_Stripes_3.jpg,right,1255.7750000269152,true,low,NA,NA,NA,NA,NA,NA,NA,false
hsmPaVMi,3t5zxgo9eh1fn0t8t5nft3pt661qzj,3z7ishfuh48b4gr6ydbhww0lp4jz8x,hsmPaVMi,2020-0188,2020-11-17,19:47:51,20:08:51,NA,incomplete,35,filling,1,1,left,Blue_Star_Chess_2.jpg,Red_Circle_Chess_3.jpg,Blue_Plus_Dots_1.jpg,left,1215.5400000046939,true,low,NA,NA,NA,NA,NA,NA,NA,false
hsmPaVMi,3t5zxgo9eh1fn0t8t5nft3pt661qzj,3z7ishfuh48b4gr6ydbhww0lp4jz8x,hsmPaVMi,2020-0188,2020-11-17,19:47:51,20:08:51,NA,incomplete,36,filling,1,1,left,Green_Triangle_Chess_2.jpg,Blue_Circle_Chess_4.jpg,Green_Star_Dots_3.jpg,left,969.8099999804981,true,low,NA,NA,NA,NA,NA,NA,NA,false
hsmPaVMi,3t5zxgo9eh1fn0t8t5nft3pt661qzj,3z7ishfuh48b4gr6ydbhww0lp4jz8x,hsmPaVMi,2020-0188,2020-11-17,19:47:51,20:08:51,NA,incomplete,37,filling,1,1,left,Green_Circle_Grid_2.jpg,Blue_Star_Grid_1.jpg,Green_Plus_Chess_3.jpg,left,853.415000019595,true,low,NA,NA,NA,NA,NA,NA,NA,false
hsmPaVMi,3t5zxgo9eh1fn0t8t5nft3pt661qzj,3z7ishfuh48b4gr6ydbhww0lp4jz8x,hsmPaVMi,2020-0188,2020-11-17,19:47:51,20:08:51,NA,incomplete,38,filling,1,0,right,Blue_Circle_Grid_1.jpg,Blue_Star_Dots_4.jpg,Purple_Plus_Grid_2.jpg,right,848.935000016354,true,low,NA,NA,NA,NA,NA,NA,NA,false
hsmPaVMi,3t5zxgo9eh1fn0t8t5nft3pt661qzj,3z7ishfuh48b4gr6ydbhww0lp4jz8x,hsmPaVMi,2020-0188,2020-11-17,19:47:51,20:08:51,NA,incomplete,39,filling,1,1,right,Green_Plus_Grid_2.jpg,Green_Star_Stripes_1.jpg,Purple_Circle_Grid_3.jpg,right,956.8349999608472,true,low,NA,NA,NA,NA,NA,NA,NA,false
hsmPaVMi,3t5zxgo9eh1fn0t8t5nft3pt661qzj,3z7ishfuh48b4gr6ydbhww0lp4jz8x,hsmPaVMi,2020-0188,2020-11-17,19:47:51,20:08:51,NA,incomplete,40,color,0,1,left,Red_Star_Grid_4.jpg,Red_Plus_Dots_3.jpg,Purple_Triangle_Grid_2.jpg,right,865.7949999906123,false,low,NA,NA,NA,NA,NA,NA,NA,false
hsmPaVMi,3t5zxgo9eh1fn0t8t5nft3pt661qzj,3z7ishfuh48b4gr6ydbhww0lp4jz8x,hsmPaVMi,2020-0188,2020-11-17,19:47:51,20:08:51,NA,incomplete,41,color,0,1,left,Red_Plus_Dots_1.jpg,Red_Triangle_Chess_2.jpg,Purple_Circle_Dots_3.jpg,right,1076.4549999730662,false,low,NA,NA,NA,NA,NA,NA,NA,false
hsmPaVMi,3t5zxgo9eh1fn0t8t5nft3pt661qzj,3z7ishfuh48b4gr6ydbhww0lp4jz8x,hsmPaVMi,2020-0188,2020-11-17,19:47:51,20:08:51,NA,incomplete,42,color,0,1,right,Purple_Triangle_Stripes_2.jpg,Green_Circle_Stripes_1.jpg,Purple_Plus_Grid_3.jpg,right,522.4300000118092,true,low,NA,NA,NA,NA,NA,NA,NA,false
hsmPaVMi,3t5zxgo9eh1fn0t8t5nft3pt661qzj,3z7ishfuh48b4gr6ydbhww0lp4jz8x,hsmPaVMi,2020-0188,2020-11-17,19:47:51,20:08:51,NA,incomplete,43,color,0,1,left,Green_Triangle_Chess_1.jpg,Green_Star_Stripes_2.jpg,Purple_Plus_Chess_3.jpg,left,658.434999990277,true,low,NA,NA,NA,NA,NA,NA,NA,false
hsmPaVMi,3t5zxgo9eh1fn0t8t5nft3pt661qzj,3z7ishfuh48b4gr6ydbhww0lp4jz8x,hsmPaVMi,2020-0188,2020-11-17,19:47:51,20:08:51,NA,incomplete,44,color,0,1,right,Purple_Circle_Grid_2.jpg,Green_Star_Grid_4.jpg,Purple_Triangle_Dots_1.jpg,right,567.5500000361353,true,low,NA,NA,NA,NA,NA,NA,NA,false
hsmPaVMi,3t5zxgo9eh1fn0t8t5nft3pt661qzj,3z7ishfuh48b4gr6ydbhww0lp4jz8x,hsmPaVMi,2020-0188,2020-11-17,19:47:51,20:08:51,NA,incomplete,45,color,0,1,left,Blue_Star_Grid_1.jpg,Blue_Circle_Dots_2.jpg,Red_Plus_Grid_3.jpg,left,517.4950000364333,true,low,NA,NA,NA,NA,NA,NA,NA,false
hsmPaVMi,3t5zxgo9eh1fn0t8t5nft3pt661qzj,3z7ishfuh48b4gr6ydbhww0lp4jz8x,hsmPaVMi,2020-0188,2020-11-17,19:47:51,20:08:51,NA,incomplete,46,color,0,1,right,Blue_Circle_Dots_2.jpg,Red_Plus_Dots_1.jpg,Blue_Triangle_Grid_4.jpg,right,430.0799999618903,true,low,NA,NA,NA,NA,NA,NA,NA,false
hsmPaVMi,3t5zxgo9eh1fn0t8t5nft3pt661qzj,3z7ishfuh48b4gr6ydbhww0lp4jz8x,hsmPaVMi,2020-0188,2020-11-17,19:47:51,20:08:51,NA,incomplete,47,color,0,1,right,Purple_Star_Chess_3.jpg,Blue_Plus_Chess_2.jpg,Purple_Circle_Dots_1.jpg,right,529.5050000422634,true,low,NA,NA,NA,NA,NA,NA,NA,false
hsmPaVMi,3t5zxgo9eh1fn0t8t5nft3pt661qzj,3z7ishfuh48b4gr6ydbhww0lp4jz8x,hsmPaVMi,2020-0188,2020-11-17,19:47:51,20:08:51,NA,incomplete,48,color,0,1,right,Red_Plus_Dots_1.jpg,Green_Triangle_Dots_3.jpg,Red_Star_Grid_4.jpg,right,498.7950000213459,true,low,NA,NA,NA,NA,NA,NA,NA,false
hsmPaVMi,3t5zxgo9eh1fn0t8t5nft3pt661qzj,3z7ishfuh48b4gr6ydbhww0lp4jz8x,hsmPaVMi,2020-0188,2020-11-17,19:47:51,20:08:51,NA,incomplete,49,color,0,1,right,Green_Circle_Dots_2.jpg,Red_Star_Dots_4.jpg,Green_Triangle_Grid_3.jpg,right,434.71000000135973,true,low,NA,NA,NA,NA,NA,NA,NA,false
hsmPaVMi,3t5zxgo9eh1fn0t8t5nft3pt661qzj,3z7ishfuh48b4gr6ydbhww0lp4jz8x,hsmPaVMi,2020-0188,2020-11-17,19:47:51,20:08:51,NA,incomplete,50,filling,1,0,right,Purple_Plus_Stripes_3.jpg,Purple_Star_Chess_1.jpg,Green_Circle_Stripes_2.jpg,left,448.6649999744259,false,low,NA,NA,NA,NA,NA,NA,NA,false
hsmPaVMi,3t5zxgo9eh1fn0t8t5nft3pt661qzj,3z7ishfuh48b4gr6ydbhww0lp4jz8x,hsmPaVMi,2020-0188,2020-11-17,19:47:51,20:08:51,NA,incomplete,51,filling,1,0,left,Purple_Triangle_Dots_4.jpg,Green_Star_Dots_3.jpg,Purple_Plus_Chess_2.jpg,right,413.9149999828078,false,low,NA,NA,NA,NA,NA,NA,NA,false
hsmPaVMi,3t5zxgo9eh1fn0t8t5nft3pt661qzj,3z7ishfuh48b4gr6ydbhww0lp4jz8x,hsmPaVMi,2020-0188,2020-11-17,19:47:51,20:08:51,NA,incomplete,52,filling,1,1,right,Green_Plus_Stripes_4.jpg,Green_Star_Grid_1.jpg,Red_Circle_Stripes_3.jpg,left,485.47000001417473,false,low,NA,NA,NA,NA,NA,NA,NA,false
hsmPaVMi,3t5zxgo9eh1fn0t8t5nft3pt661qzj,3z7ishfuh48b4gr6ydbhww0lp4jz8x,hsmPaVMi,2020-0188,2020-11-17,19:47:51,20:08:51,NA,incomplete,53,filling,1,1,left,Green_Circle_Chess_4.jpg,Red_Triangle_Chess_2.jpg,Green_Plus_Grid_3.jpg,right,419.46000000461936,false,low,NA,NA,NA,NA,NA,NA,NA,false
hsmPaVMi,3t5zxgo9eh1fn0t8t5nft3pt661qzj,3z7ishfuh48b4gr6ydbhww0lp4jz8x,hsmPaVMi,2020-0188,2020-11-17,19:47:51,20:08:51,NA,incomplete,54,filling,1,1,left,Green_Plus_Chess_3.jpg,Purple_Triangle_Chess_1.jpg,Green_Star_Grid_2.jpg,left,968.6099999817088,true,low,NA,NA,NA,NA,NA,NA,NA,false
hsmPaVMi,3t5zxgo9eh1fn0t8t5nft3pt661qzj,3z7ishfuh48b4gr6ydbhww0lp4jz8x,hsmPaVMi,2020-0188,2020-11-17,19:47:51,20:08:51,NA,incomplete,55,filling,1,1,left,Green_Plus_Chess_3.jpg,Blue_Triangle_Chess_2.jpg,Green_Circle_Dots_1.jpg,left,912.5699999858625,true,low,NA,NA,NA,NA,NA,NA,NA,false
hsmPaVMi,3t5zxgo9eh1fn0t8t5nft3pt661qzj,3z7ishfuh48b4gr6ydbhww0lp4jz8x,hsmPaVMi,2020-0188,2020-11-17,19:47:51,20:08:51,NA,incomplete,56,filling,1,1,left,Blue_Triangle_Chess_1.jpg,Red_Star_Chess_4.jpg,Blue_Plus_Stripes_2.jpg,left,796.7150000040419,true,low,NA,NA,NA,NA,NA,NA,NA,false
hsmPaVMi,3t5zxgo9eh1fn0t8t5nft3pt661qzj,3z7ishfuh48b4gr6ydbhww0lp4jz8x,hsmPaVMi,2020-0188,2020-11-17,19:47:51,20:08:51,NA,incomplete,57,filling,1,1,left,Red_Plus_Chess_1.jpg,Blue_Star_Chess_2.jpg,Red_Circle_Grid_4.jpg,left,822.7900000056252,true,low,NA,NA,NA,NA,NA,NA,NA,false
hsmPaVMi,3t5zxgo9eh1fn0t8t5nft3pt661qzj,3z7ishfuh48b4gr6ydbhww0lp4jz8x,hsmPaVMi,2020-0188,2020-11-17,19:47:51,20:08:51,NA,incomplete,58,filling,1,1,left,Blue_Triangle_Grid_1.jpg,Green_Circle_Grid_4.jpg,Blue_Star_Dots_2.jpg,left,754.3399999849498,true,low,NA,NA,NA,NA,NA,NA,NA,false
hsmPaVMi,3t5zxgo9eh1fn0t8t5nft3pt661qzj,3z7ishfuh48b4gr6ydbhww0lp4jz8x,hsmPaVMi,2020-0188,2020-11-17,19:47:51,20:08:51,NA,incomplete,59,filling,1,1,right,Red_Circle_Stripes_4.jpg,Red_Triangle_Grid_2.jpg,Green_Plus_Stripes_3.jpg,right,767.954999988433,true,low,NA,NA,NA,NA,NA,NA,NA,false
hsmPaVMi,3t5zxgo9eh1fn0t8t5nft3pt661qzj,3z7ishfuh48b4gr6ydbhww0lp4jz8x,hsmPaVMi,2020-0188,2020-11-17,19:47:51,20:08:51,NA,incomplete,60,color,0,0,left,Green_Star_Grid_2.jpg,Green_Circle_Dots_1.jpg,Blue_Triangle_Grid_4.jpg,right,823.4049999737181,false,low,NA,NA,NA,NA,NA,NA,NA,false
hsmPaVMi,3t5zxgo9eh1fn0t8t5nft3pt661qzj,3z7ishfuh48b4gr6ydbhww0lp4jz8x,hsmPaVMi,2020-0188,2020-11-17,19:47:51,20:08:51,NA,incomplete,61,color,0,1,left,Green_Star_Stripes_3.jpg,Green_Plus_Grid_4.jpg,Blue_Triangle_Stripes_2.jpg,right,917.3149999696761,false,low,NA,NA,NA,NA,NA,NA,NA,false
hsmPaVMi,3t5zxgo9eh1fn0t8t5nft3pt661qzj,3z7ishfuh48b4gr6ydbhww0lp4jz8x,hsmPaVMi,2020-0188,2020-11-17,19:47:51,20:08:51,NA,incomplete,62,color,0,1,right,Green_Circle_Grid_4.jpg,Purple_Plus_Grid_3.jpg,Green_Triangle_Chess_1.jpg,right,564.1150000155903,true,low,NA,NA,NA,NA,NA,NA,NA,false
hsmPaVMi,3t5zxgo9eh1fn0t8t5nft3pt661qzj,3z7ishfuh48b4gr6ydbhww0lp4jz8x,hsmPaVMi,2020-0188,2020-11-17,19:47:51,20:08:51,NA,incomplete,63,color,0,1,right,Purple_Circle_Stripes_4.jpg,Green_Triangle_Stripes_1.jpg,Purple_Plus_Chess_3.jpg,right,628.0549999792129,true,low,NA,NA,NA,NA,NA,NA,NA,false
hsmPaVMi,3t5zxgo9eh1fn0t8t5nft3pt661qzj,3z7ishfuh48b4gr6ydbhww0lp4jz8x,hsmPaVMi,2020-0188,2020-11-17,19:47:51,20:08:51,NA,incomplete,64,color,0,1,right,Purple_Plus_Grid_2.jpg,Red_Triangle_Grid_1.jpg,Purple_Circle_Chess_3.jpg,right,403.7549999775365,true,low,NA,NA,NA,NA,NA,NA,NA,false
hsmPaVMi,3t5zxgo9eh1fn0t8t5nft3pt661qzj,3z7ishfuh48b4gr6ydbhww0lp4jz8x,hsmPaVMi,2020-0188,2020-11-17,19:47:51,20:08:51,NA,incomplete,65,color,0,1,right,Purple_Plus_Chess_3.jpg,Blue_Triangle_Chess_2.jpg,Purple_Star_Grid_4.jpg,right,497.57500004488975,true,low,NA,NA,NA,NA,NA,NA,NA,false
hsmPaVMi,3t5zxgo9eh1fn0t8t5nft3pt661qzj,3z7ishfuh48b4gr6ydbhww0lp4jz8x,hsmPaVMi,2020-0188,2020-11-17,19:47:51,20:08:51,NA,incomplete,66,color,0,0,left,Purple_Triangle_Chess_2.jpg,Purple_Circle_Dots_1.jpg,Red_Plus_Chess_4.jpg,left,467.4750000122003,true,low,NA,NA,NA,NA,NA,NA,NA,false
hsmPaVMi,3t5zxgo9eh1fn0t8t5nft3pt661qzj,3z7ishfuh48b4gr6ydbhww0lp4jz8x,hsmPaVMi,2020-0188,2020-11-17,19:47:51,20:08:51,NA,incomplete,67,color,0,1,right,Red_Triangle_Chess_1.jpg,Green_Plus_Chess_4.jpg,Red_Circle_Dots_2.jpg,right,516.2000000127591,true,low,NA,NA,NA,NA,NA,NA,NA,false
hsmPaVMi,3t5zxgo9eh1fn0t8t5nft3pt661qzj,3z7ishfuh48b4gr6ydbhww0lp4jz8x,hsmPaVMi,2020-0188,2020-11-17,19:47:51,20:08:51,NA,incomplete,68,color,0,1,right,Purple_Plus_Grid_2.jpg,Green_Triangle_Grid_4.jpg,Purple_Star_Dots_3.jpg,right,461.6599999717437,true,low,NA,NA,NA,NA,NA,NA,NA,false
hsmPaVMi,3t5zxgo9eh1fn0t8t5nft3pt661qzj,3z7ishfuh48b4gr6ydbhww0lp4jz8x,hsmPaVMi,2020-0188,2020-11-17,19:47:51,20:08:51,NA,incomplete,69,color,0,1,left,Purple_Triangle_Stripes_4.jpg,Purple_Star_Grid_1.jpg,Green_Plus_Stripes_2.jpg,left,473.5649999929592,true,low,NA,NA,NA,NA,NA,NA,NA,false
hsmPaVMi,3t5zxgo9eh1fn0t8t5nft3pt661qzj,3z7ishfuh48b4gr6ydbhww0lp4jz8x,hsmPaVMi,2020-0188,2020-11-17,19:47:51,20:08:51,NA,incomplete,70,filling,1,1,right,Red_Triangle_Grid_1.jpg,Red_Star_Chess_3.jpg,Purple_Plus_Grid_4.jpg,left,542.8700000047684,false,low,NA,NA,NA,NA,NA,NA,NA,false
hsmPaVMi,3t5zxgo9eh1fn0t8t5nft3pt661qzj,3z7ishfuh48b4gr6ydbhww0lp4jz8x,hsmPaVMi,2020-0188,2020-11-17,19:47:51,20:08:51,NA,incomplete,71,filling,1,1,left,Blue_Triangle_Dots_3.jpg,Purple_Circle_Dots_4.jpg,Blue_Star_Stripes_2.jpg,right,424.7200000099838,false,low,NA,NA,NA,NA,NA,NA,NA,false
hsmPaVMi,3t5zxgo9eh1fn0t8t5nft3pt661qzj,3z7ishfuh48b4gr6ydbhww0lp4jz8x,hsmPaVMi,2020-0188,2020-11-17,19:47:51,20:08:51,NA,incomplete,72,filling,1,1,right,Red_Plus_Dots_4.jpg,Red_Triangle_Grid_1.jpg,Purple_Star_Dots_3.jpg,right,1118.224999983795,true,low,NA,NA,NA,NA,NA,NA,NA,false
hsmPaVMi,3t5zxgo9eh1fn0t8t5nft3pt661qzj,3z7ishfuh48b4gr6ydbhww0lp4jz8x,hsmPaVMi,2020-0188,2020-11-17,19:47:51,20:08:51,NA,incomplete,73,filling,1,1,left,Red_Star_Stripes_4.jpg,Purple_Circle_Stripes_3.jpg,Red_Plus_Chess_2.jpg,left,1280.4300000425428,true,low,NA,NA,NA,NA,NA,NA,NA,false
hsmPaVMi,3t5zxgo9eh1fn0t8t5nft3pt661qzj,3z7ishfuh48b4gr6ydbhww0lp4jz8x,hsmPaVMi,2020-0188,2020-11-17,19:47:51,20:08:51,NA,incomplete,74,filling,1,1,left,Purple_Plus_Grid_1.jpg,Blue_Star_Grid_3.jpg,Purple_Circle_Chess_4.jpg,left,899.6250000200234,true,low,NA,NA,NA,NA,NA,NA,NA,false
hsmPaVMi,3t5zxgo9eh1fn0t8t5nft3pt661qzj,3z7ishfuh48b4gr6ydbhww0lp4jz8x,hsmPaVMi,2020-0188,2020-11-17,19:47:51,20:08:51,NA,incomplete,75,filling,1,0,left,Green_Star_Dots_1.jpg,Blue_Triangle_Dots_2.jpg,Green_Plus_Chess_3.jpg,left,966.6299999807961,true,low,NA,NA,NA,NA,NA,NA,NA,false
hsmPaVMi,3t5zxgo9eh1fn0t8t5nft3pt661qzj,3z7ishfuh48b4gr6ydbhww0lp4jz8x,hsmPaVMi,2020-0188,2020-11-17,19:47:51,20:08:51,NA,incomplete,76,filling,1,0,left,Purple_Circle_Grid_3.jpg,Green_Plus_Grid_4.jpg,Purple_Triangle_Chess_2.jpg,left,938.5250000050291,true,low,NA,NA,NA,NA,NA,NA,NA,false
hsmPaVMi,3t5zxgo9eh1fn0t8t5nft3pt661qzj,3z7ishfuh48b4gr6ydbhww0lp4jz8x,hsmPaVMi,2020-0188,2020-11-17,19:47:51,20:08:51,NA,incomplete,77,filling,1,1,right,Red_Plus_Grid_4.jpg,Red_Triangle_Dots_1.jpg,Blue_Circle_Grid_2.jpg,left,446.1400000145659,false,low,NA,NA,NA,NA,NA,NA,NA,false
hsmPaVMi,3t5zxgo9eh1fn0t8t5nft3pt661qzj,3z7ishfuh48b4gr6ydbhww0lp4jz8x,hsmPaVMi,2020-0188,2020-11-17,19:47:51,20:08:51,NA,incomplete,78,filling,1,0,right,Blue_Plus_Chess_2.jpg,Blue_Star_Dots_1.jpg,Purple_Circle_Chess_3.jpg,right,936.0350000206381,true,low,NA,NA,NA,NA,NA,NA,NA,false
hsmPaVMi,3t5zxgo9eh1fn0t8t5nft3pt661qzj,3z7ishfuh48b4gr6ydbhww0lp4jz8x,hsmPaVMi,2020-0188,2020-11-17,19:47:51,20:08:51,NA,incomplete,79,filling,1,1,left,Green_Star_Chess_3.jpg,Blue_Circle_Chess_1.jpg,Green_Triangle_Stripes_2.jpg,right,1048.3499999972992,false,low,NA,NA,NA,NA,NA,NA,NA,false
hsmPaVMi,3t5zxgo9eh1fn0t8t5nft3pt661qzj,3z7ishfuh48b4gr6ydbhww0lp4jz8x,hsmPaVMi,2020-0188,2020-11-17,19:47:51,20:08:51,NA,incomplete,80,color,0,1,right,Purple_Circle_Dots_4.jpg,Green_Plus_Dots_2.jpg,Purple_Triangle_Grid_3.jpg,right,473.5050000017509,true,low,NA,NA,NA,NA,NA,NA,NA,false
hsmPaVMi,3t5zxgo9eh1fn0t8t5nft3pt661qzj,3z7ishfuh48b4gr6ydbhww0lp4jz8x,hsmPaVMi,2020-0188,2020-11-17,19:47:51,20:08:51,NA,incomplete,81,color,0,1,left,Purple_Triangle_Dots_4.jpg,Purple_Circle_Chess_1.jpg,Red_Star_Dots_2.jpg,left,522.9249999974854,true,low,NA,NA,NA,NA,NA,NA,NA,false
hsmPaVMi,3t5zxgo9eh1fn0t8t5nft3pt661qzj,3z7ishfuh48b4gr6ydbhww0lp4jz8x,hsmPaVMi,2020-0188,2020-11-17,19:47:51,20:08:51,NA,incomplete,82,color,0,1,right,Blue_Circle_Dots_4.jpg,Purple_Star_Dots_1.jpg,Blue_Plus_Grid_3.jpg,right,415.7850000192411,true,low,NA,NA,NA,NA,NA,NA,NA,false
hsmPaVMi,3t5zxgo9eh1fn0t8t5nft3pt661qzj,3z7ishfuh48b4gr6ydbhww0lp4jz8x,hsmPaVMi,2020-0188,2020-11-17,19:47:51,20:08:51,NA,incomplete,83,color,0,0,left,Purple_Star_Stripes_1.jpg,Purple_Circle_Chess_3.jpg,Green_Triangle_Stripes_4.jpg,left,424.2849999573082,true,low,NA,NA,NA,NA,NA,NA,NA,false
hsmPaVMi,3t5zxgo9eh1fn0t8t5nft3pt661qzj,3z7ishfuh48b4gr6ydbhww0lp4jz8x,hsmPaVMi,2020-0188,2020-11-17,19:47:51,20:08:51,NA,incomplete,84,color,0,0,left,Blue_Plus_Dots_2.jpg,Blue_Triangle_Chess_4.jpg,Purple_Circle_Dots_1.jpg,left,432.8150000073947,true,low,NA,NA,NA,NA,NA,NA,NA,false
hsmPaVMi,3t5zxgo9eh1fn0t8t5nft3pt661qzj,3z7ishfuh48b4gr6ydbhww0lp4jz8x,hsmPaVMi,2020-0188,2020-11-17,19:47:51,20:08:51,NA,incomplete,85,color,0,0,right,Red_Star_Stripes_1.jpg,Green_Plus_Stripes_2.jpg,Red_Triangle_Grid_4.jpg,right,485.46499997610226,true,low,NA,NA,NA,NA,NA,NA,NA,false
hsmPaVMi,3t5zxgo9eh1fn0t8t5nft3pt661qzj,3z7ishfuh48b4gr6ydbhww0lp4jz8x,hsmPaVMi,2020-0188,2020-11-17,19:47:51,20:08:51,NA,incomplete,86,color,0,1,left,Red_Circle_Dots_3.jpg,Red_Star_Chess_2.jpg,Blue_Triangle_Dots_4.jpg,right,953.49000004353,false,low,NA,NA,NA,NA,NA,NA,NA,false
hsmPaVMi,3t5zxgo9eh1fn0t8t5nft3pt661qzj,3z7ishfuh48b4gr6ydbhww0lp4jz8x,hsmPaVMi,2020-0188,2020-11-17,19:47:51,20:08:51,NA,incomplete,87,color,0,1,right,Green_Triangle_Chess_1.jpg,Purple_Plus_Chess_3.jpg,Green_Circle_Dots_4.jpg,left,868.7650000210851,false,low,NA,NA,NA,NA,NA,NA,NA,false
hsmPaVMi,3t5zxgo9eh1fn0t8t5nft3pt661qzj,3z7ishfuh48b4gr6ydbhww0lp4jz8x,hsmPaVMi,2020-0188,2020-11-17,19:47:51,20:08:51,NA,incomplete,88,color,0,1,left,Blue_Plus_Dots_2.jpg,Blue_Star_Chess_4.jpg,Green_Triangle_Dots_3.jpg,left,476.9549999618903,true,low,NA,NA,NA,NA,NA,NA,NA,false
hsmPaVMi,3t5zxgo9eh1fn0t8t5nft3pt661qzj,3z7ishfuh48b4gr6ydbhww0lp4jz8x,hsmPaVMi,2020-0188,2020-11-17,19:47:51,20:08:51,NA,incomplete,89,color,0,0,right,Blue_Circle_Stripes_1.jpg,Green_Star_Stripes_3.jpg,Blue_Triangle_Dots_4.jpg,right,476.1949999956414,true,low,NA,NA,NA,NA,NA,NA,NA,false
hsmPaVMi,3t5zxgo9eh1fn0t8t5nft3pt661qzj,3z7ishfuh48b4gr6ydbhww0lp4jz8x,hsmPaVMi,2020-0188,2020-11-17,19:47:51,20:08:51,NA,incomplete,90,filling,1,1,left,Green_Star_Dots_2.jpg,Purple_Plus_Dots_1.jpg,Green_Circle_Chess_4.jpg,right,741.3200000301003,false,low,NA,NA,NA,NA,NA,NA,NA,false
hsmPaVMi,3t5zxgo9eh1fn0t8t5nft3pt661qzj,3z7ishfuh48b4gr6ydbhww0lp4jz8x,hsmPaVMi,2020-0188,2020-11-17,19:47:51,20:08:51,NA,incomplete,91,filling,1,1,right,Blue_Triangle_Grid_1.jpg,Blue_Plus_Chess_4.jpg,Red_Circle_Grid_2.jpg,right,1271.40500000678,true,low,NA,NA,NA,NA,NA,NA,NA,false
hsmPaVMi,3t5zxgo9eh1fn0t8t5nft3pt661qzj,3z7ishfuh48b4gr6ydbhww0lp4jz8x,hsmPaVMi,2020-0188,2020-11-17,19:47:51,20:08:51,NA,incomplete,92,filling,1,1,left,Red_Circle_Grid_2.jpg,Blue_Triangle_Grid_4.jpg,Red_Star_Chess_1.jpg,left,859.5100000384264,true,low,NA,NA,NA,NA,NA,NA,NA,false
hsmPaVMi,3t5zxgo9eh1fn0t8t5nft3pt661qzj,3z7ishfuh48b4gr6ydbhww0lp4jz8x,hsmPaVMi,2020-0188,2020-11-17,19:47:51,20:08:51,NA,incomplete,93,filling,1,1,left,Red_Star_Chess_4.jpg,Green_Triangle_Chess_2.jpg,Red_Plus_Dots_3.jpg,left,901.8950000172481,true,low,NA,NA,NA,NA,NA,NA,NA,false
hsmPaVMi,3t5zxgo9eh1fn0t8t5nft3pt661qzj,3z7ishfuh48b4gr6ydbhww0lp4jz8x,hsmPaVMi,2020-0188,2020-11-17,19:47:51,20:08:51,NA,incomplete,94,filling,1,1,left,Red_Triangle_Grid_3.jpg,Purple_Plus_Grid_2.jpg,Red_Circle_Dots_4.jpg,left,797.8599999914877,true,low,NA,NA,NA,NA,NA,NA,NA,false
hsmPaVMi,3t5zxgo9eh1fn0t8t5nft3pt661qzj,3z7ishfuh48b4gr6ydbhww0lp4jz8x,hsmPaVMi,2020-0188,2020-11-17,19:47:51,20:08:51,NA,incomplete,95,filling,1,0,left,Red_Plus_Stripes_4.jpg,Purple_Triangle_Stripes_3.jpg,Red_Circle_Grid_1.jpg,left,946.1299999966286,true,low,NA,NA,NA,NA,NA,NA,NA,false
hsmPaVMi,3t5zxgo9eh1fn0t8t5nft3pt661qzj,3z7ishfuh48b4gr6ydbhww0lp4jz8x,hsmPaVMi,2020-0188,2020-11-17,19:47:51,20:08:51,NA,incomplete,96,filling,1,1,left,Red_Plus_Chess_2.jpg,Green_Star_Chess_1.jpg,Red_Circle_Grid_4.jpg,left,1063.8599999947473,true,low,NA,NA,NA,NA,NA,NA,NA,false
hsmPaVMi,3t5zxgo9eh1fn0t8t5nft3pt661qzj,3z7ishfuh48b4gr6ydbhww0lp4jz8x,hsmPaVMi,2020-0188,2020-11-17,19:47:51,20:08:51,NA,incomplete,97,filling,1,1,right,Green_Star_Dots_3.jpg,Green_Triangle_Stripes_4.jpg,Purple_Circle_Dots_2.jpg,right,937.05000000773,true,low,NA,NA,NA,NA,NA,NA,NA,false
hsmPaVMi,3t5zxgo9eh1fn0t8t5nft3pt661qzj,3z7ishfuh48b4gr6ydbhww0lp4jz8x,hsmPaVMi,2020-0188,2020-11-17,19:47:51,20:08:51,NA,incomplete,98,filling,1,1,left,Purple_Triangle_Stripes_1.jpg,Red_Circle_Stripes_3.jpg,Purple_Star_Grid_2.jpg,left,830.7200000272132,true,low,NA,NA,NA,NA,NA,NA,NA,false
hsmPaVMi,3t5zxgo9eh1fn0t8t5nft3pt661qzj,3z7ishfuh48b4gr6ydbhww0lp4jz8x,hsmPaVMi,2020-0188,2020-11-17,19:47:51,20:08:51,NA,incomplete,99,filling,1,1,right,Purple_Star_Stripes_2.jpg,Purple_Circle_Chess_3.jpg,Green_Plus_Stripes_4.jpg,right,892.5150000141002,true,low,NA,NA,NA,NA,NA,NA,NA,false
hsmPaVMi,3t5zxgo9eh1fn0t8t5nft3pt661qzj,3z7ishfuh48b4gr6ydbhww0lp4jz8x,hsmPaVMi,2020-0188,2020-11-17,19:47:51,20:08:51,NA,incomplete,100,color,0,1,left,Purple_Triangle_Dots_3.jpg,Purple_Plus_Stripes_2.jpg,Green_Star_Dots_4.jpg,right,901.1100000352599,false,low,NA,NA,NA,NA,NA,NA,NA,false
hsmPaVMi,3t5zxgo9eh1fn0t8t5nft3pt661qzj,3z7ishfuh48b4gr6ydbhww0lp4jz8x,hsmPaVMi,2020-0188,2020-11-17,19:47:51,20:08:51,NA,incomplete,101,color,0,1,left,Red_Plus_Chess_1.jpg,Red_Circle_Stripes_3.jpg,Purple_Triangle_Chess_4.jpg,right,973.1350000365637,false,low,NA,NA,NA,NA,NA,NA,NA,false
hsmPaVMi,3t5zxgo9eh1fn0t8t5nft3pt661qzj,3z7ishfuh48b4gr6ydbhww0lp4jz8x,hsmPaVMi,2020-0188,2020-11-17,19:47:51,20:08:51,NA,incomplete,102,color,0,1,left,Red_Triangle_Chess_4.jpg,Red_Circle_Grid_2.jpg,Blue_Star_Chess_1.jpg,right,918.874999973923,false,low,NA,NA,NA,NA,NA,NA,NA,false
hsmPaVMi,3t5zxgo9eh1fn0t8t5nft3pt661qzj,3z7ishfuh48b4gr6ydbhww0lp4jz8x,hsmPaVMi,2020-0188,2020-11-17,19:47:51,20:08:51,NA,incomplete,103,color,0,1,left,Purple_Triangle_Grid_3.jpg,Purple_Circle_Dots_2.jpg,Blue_Star_Grid_1.jpg,left,573.4199999715202,true,low,NA,NA,NA,NA,NA,NA,NA,false
hsmPaVMi,3t5zxgo9eh1fn0t8t5nft3pt661qzj,3z7ishfuh48b4gr6ydbhww0lp4jz8x,hsmPaVMi,2020-0188,2020-11-17,19:47:51,20:08:51,NA,incomplete,104,color,0,1,left,Blue_Triangle_Chess_4.jpg,Blue_Plus_Grid_1.jpg,Green_Circle_Chess_3.jpg,left,452.6450000121258,true,low,NA,NA,NA,NA,NA,NA,NA,false
hsmPaVMi,3t5zxgo9eh1fn0t8t5nft3pt661qzj,3z7ishfuh48b4gr6ydbhww0lp4jz8x,hsmPaVMi,2020-0188,2020-11-17,19:47:51,20:08:51,NA,incomplete,105,color,0,1,left,Blue_Triangle_Grid_3.jpg,Blue_Star_Chess_2.jpg,Red_Plus_Grid_4.jpg,left,493.0850000237115,true,low,NA,NA,NA,NA,NA,NA,NA,false
hsmPaVMi,3t5zxgo9eh1fn0t8t5nft3pt661qzj,3z7ishfuh48b4gr6ydbhww0lp4jz8x,hsmPaVMi,2020-0188,2020-11-17,19:47:51,20:08:51,NA,incomplete,106,color,0,1,left,Blue_Star_Grid_1.jpg,Blue_Plus_Dots_4.jpg,Red_Triangle_Grid_3.jpg,left,364.8449999745935,true,low,NA,NA,NA,NA,NA,NA,NA,false
hsmPaVMi,3t5zxgo9eh1fn0t8t5nft3pt661qzj,3z7ishfuh48b4gr6ydbhww0lp4jz8x,hsmPaVMi,2020-0188,2020-11-17,19:47:51,20:08:51,NA,incomplete,107,color,0,1,left,Purple_Circle_Grid_4.jpg,Purple_Star_Stripes_1.jpg,Blue_Plus_Grid_2.jpg,left,601.3450000318699,true,low,NA,NA,NA,NA,NA,NA,NA,false
hsmPaVMi,3t5zxgo9eh1fn0t8t5nft3pt661qzj,3z7ishfuh48b4gr6ydbhww0lp4jz8x,hsmPaVMi,2020-0188,2020-11-17,19:47:51,20:08:51,NA,incomplete,108,color,0,1,right,Green_Circle_Chess_2.jpg,Red_Plus_Chess_3.jpg,Green_Star_Grid_1.jpg,left,929.9650000175461,false,low,NA,NA,NA,NA,NA,NA,NA,false
hsmPaVMi,3t5zxgo9eh1fn0t8t5nft3pt661qzj,3z7ishfuh48b4gr6ydbhww0lp4jz8x,hsmPaVMi,2020-0188,2020-11-17,19:47:51,20:08:51,NA,incomplete,109,color,0,1,left,Purple_Triangle_Grid_3.jpg,Purple_Plus_Stripes_4.jpg,Green_Star_Grid_1.jpg,left,434.2750000068918,true,low,NA,NA,NA,NA,NA,NA,NA,false
hsmPaVMi,3t5zxgo9eh1fn0t8t5nft3pt661qzj,3z7ishfuh48b4gr6ydbhww0lp4jz8x,hsmPaVMi,2020-0188,2020-11-17,19:47:51,20:08:51,NA,incomplete,110,filling,1,1,right,Red_Star_Chess_2.jpg,Red_Triangle_Grid_1.jpg,Blue_Circle_Chess_3.jpg,left,585.3800000040792,false,low,NA,NA,NA,NA,NA,NA,NA,false
hsmPaVMi,3t5zxgo9eh1fn0t8t5nft3pt661qzj,3z7ishfuh48b4gr6ydbhww0lp4jz8x,hsmPaVMi,2020-0188,2020-11-17,19:47:51,20:08:51,NA,incomplete,111,filling,1,1,left,Red_Circle_Grid_2.jpg,Green_Triangle_Grid_4.jpg,Red_Plus_Stripes_3.jpg,left,1022.835000010673,true,low,NA,NA,NA,NA,NA,NA,NA,false
hsmPaVMi,3t5zxgo9eh1fn0t8t5nft3pt661qzj,3z7ishfuh48b4gr6ydbhww0lp4jz8x,hsmPaVMi,2020-0188,2020-11-17,19:47:51,20:08:51,NA,incomplete,112,filling,1,1,left,Purple_Triangle_Chess_1.jpg,Blue_Circle_Chess_3.jpg,Purple_Star_Grid_2.jpg,left,955.6100000045262,true,low,NA,NA,NA,NA,NA,NA,NA,false
hsmPaVMi,3t5zxgo9eh1fn0t8t5nft3pt661qzj,3z7ishfuh48b4gr6ydbhww0lp4jz8x,hsmPaVMi,2020-0188,2020-11-17,19:47:51,20:08:51,NA,incomplete,113,filling,1,1,left,Purple_Circle_Chess_1.jpg,Green_Star_Chess_3.jpg,Purple_Triangle_Dots_4.jpg,left,857.0149999577552,true,low,NA,NA,NA,NA,NA,NA,NA,false
hsmPaVMi,3t5zxgo9eh1fn0t8t5nft3pt661qzj,3z7ishfuh48b4gr6ydbhww0lp4jz8x,hsmPaVMi,2020-0188,2020-11-17,19:47:51,20:08:51,NA,incomplete,114,filling,1,1,left,Blue_Star_Dots_3.jpg,Green_Plus_Dots_1.jpg,Blue_Circle_Grid_2.jpg,left,948.3950000139885,true,low,NA,NA,NA,NA,NA,NA,NA,false
hsmPaVMi,3t5zxgo9eh1fn0t8t5nft3pt661qzj,3z7ishfuh48b4gr6ydbhww0lp4jz8x,hsmPaVMi,2020-0188,2020-11-17,19:47:51,20:08:51,NA,incomplete,115,filling,1,1,left,Blue_Star_Grid_1.jpg,Purple_Triangle_Grid_4.jpg,Blue_Plus_Dots_2.jpg,left,735.7750000082888,true,low,NA,NA,NA,NA,NA,NA,NA,false
hsmPaVMi,3t5zxgo9eh1fn0t8t5nft3pt661qzj,3z7ishfuh48b4gr6ydbhww0lp4jz8x,hsmPaVMi,2020-0188,2020-11-17,19:47:51,20:08:51,NA,incomplete,116,filling,1,1,right,Purple_Star_Stripes_1.jpg,Purple_Triangle_Chess_2.jpg,Blue_Circle_Stripes_4.jpg,right,815.9650000161491,true,low,NA,NA,NA,NA,NA,NA,NA,false
hsmPaVMi,3t5zxgo9eh1fn0t8t5nft3pt661qzj,3z7ishfuh48b4gr6ydbhww0lp4jz8x,hsmPaVMi,2020-0188,2020-11-17,19:47:51,20:08:51,NA,incomplete,117,filling,1,1,right,Purple_Plus_Grid_4.jpg,Purple_Circle_Chess_2.jpg,Red_Star_Grid_3.jpg,right,965.4150000424124,true,low,NA,NA,NA,NA,NA,NA,NA,false
hsmPaVMi,3t5zxgo9eh1fn0t8t5nft3pt661qzj,3z7ishfuh48b4gr6ydbhww0lp4jz8x,hsmPaVMi,2020-0188,2020-11-17,19:47:51,20:08:51,NA,incomplete,118,filling,1,1,right,Green_Triangle_Chess_1.jpg,Green_Plus_Dots_3.jpg,Purple_Star_Chess_4.jpg,right,982.8649999690242,true,low,NA,NA,NA,NA,NA,NA,NA,false
hsmPaVMi,3t5zxgo9eh1fn0t8t5nft3pt661qzj,3z7ishfuh48b4gr6ydbhww0lp4jz8x,hsmPaVMi,2020-0188,2020-11-17,19:47:51,20:08:51,NA,incomplete,119,filling,1,0,left,Purple_Plus_Stripes_3.jpg,Blue_Circle_Stripes_2.jpg,Purple_Triangle_Chess_4.jpg,left,818.8199999858625,true,low,NA,NA,NA,NA,NA,NA,NA,false
hsmPaVMi,3t5zxgo9eh1fn0t8t5nft3pt661qzj,3z7ishfuh48b4gr6ydbhww0lp4jz8x,hsmPaVMi,2020-0188,2020-11-17,19:47:51,20:08:51,NA,incomplete,120,gender,2,1,right,C_F_06.jpg,C_M_15.jpg,A_F_04.jpg,NA,NA,NA,low,NA,NA,NA,NA,NA,NA,NA,false
hsmPaVMi,3t5zxgo9eh1fn0t8t5nft3pt661qzj,3z7ishfuh48b4gr6ydbhww0lp4jz8x,hsmPaVMi,2020-0188,2020-11-17,19:47:51,20:08:51,NA,incomplete,121,gender,2,1,right,C_M_04.jpg,C_F_06.jpg,A_M_10.jpg,right,1273.8499999977648,true,low,NA,NA,NA,NA,NA,NA,NA,false
hsmPaVMi,3t5zxgo9eh1fn0t8t5nft3pt661qzj,3z7ishfuh48b4gr6ydbhww0lp4jz8x,hsmPaVMi,2020-0188,2020-11-17,19:47:51,20:08:51,NA,incomplete,122,gender,2,0,right,A_F_14.jpg,A_M_10.jpg,C_F_16.jpg,right,884.6600000397302,true,low,NA,NA,NA,NA,NA,NA,NA,false
hsmPaVMi,3t5zxgo9eh1fn0t8t5nft3pt661qzj,3z7ishfuh48b4gr6ydbhww0lp4jz8x,hsmPaVMi,2020-0188,2020-11-17,19:47:51,20:08:51,NA,incomplete,123,gender,2,1,right,A_F_15.jpg,A_M_07.jpg,C_F_08.jpg,right,1060.9300000360236,true,low,NA,NA,NA,NA,NA,NA,NA,false
hsmPaVMi,3t5zxgo9eh1fn0t8t5nft3pt661qzj,3z7ishfuh48b4gr6ydbhww0lp4jz8x,hsmPaVMi,2020-0188,2020-11-17,19:47:51,20:08:51,NA,incomplete,124,gender,2,0,right,C_F_13.jpg,C_M_14.jpg,A_F_02.jpg,right,1108.029999944847,true,low,NA,NA,NA,NA,NA,NA,NA,false
hsmPaVMi,3t5zxgo9eh1fn0t8t5nft3pt661qzj,3z7ishfuh48b4gr6ydbhww0lp4jz8x,hsmPaVMi,2020-0188,2020-11-17,19:47:51,20:08:51,NA,incomplete,125,gender,2,1,right,A_M_16.jpg,A_F_15.jpg,C_M_09.jpg,left,1790.6249999650754,false,low,NA,NA,NA,NA,NA,NA,NA,false
hsmPaVMi,3t5zxgo9eh1fn0t8t5nft3pt661qzj,3z7ishfuh48b4gr6ydbhww0lp4jz8x,hsmPaVMi,2020-0188,2020-11-17,19:47:51,20:08:51,NA,incomplete,126,gender,2,1,right,A_M_03.jpg,A_F_10.jpg,C_M_02.jpg,right,953.6899999948218,true,low,NA,NA,NA,NA,NA,NA,NA,false
hsmPaVMi,3t5zxgo9eh1fn0t8t5nft3pt661qzj,3z7ishfuh48b4gr6ydbhww0lp4jz8x,hsmPaVMi,2020-0188,2020-11-17,19:47:51,20:08:51,NA,incomplete,127,gender,2,1,right,C_M_07.jpg,C_F_08.jpg,A_M_02.jpg,right,1323.7799999769777,true,low,NA,NA,NA,NA,NA,NA,NA,false
hsmPaVMi,3t5zxgo9eh1fn0t8t5nft3pt661qzj,3z7ishfuh48b4gr6ydbhww0lp4jz8x,hsmPaVMi,2020-0188,2020-11-17,19:47:51,20:08:51,NA,incomplete,128,gender,2,1,right,A_F_05.jpg,A_M_08.jpg,C_F_16.jpg,right,1026.3949999934994,true,low,NA,NA,NA,NA,NA,NA,NA,false
hsmPaVMi,3t5zxgo9eh1fn0t8t5nft3pt661qzj,3z7ishfuh48b4gr6ydbhww0lp4jz8x,hsmPaVMi,2020-0188,2020-11-17,19:47:51,20:08:51,NA,incomplete,129,gender,2,1,right,A_F_15.jpg,A_M_06.jpg,C_F_05.jpg,right,947.3750000470318,true,low,NA,NA,NA,NA,NA,NA,NA,false
hsmPaVMi,3t5zxgo9eh1fn0t8t5nft3pt661qzj,3z7ishfuh48b4gr6ydbhww0lp4jz8x,hsmPaVMi,2020-0188,2020-11-17,19:47:51,20:08:51,NA,incomplete,130,gender,2,1,right,A_F_04.jpg,A_M_16.jpg,C_F_11.jpg,right,658.6850000312552,true,low,NA,NA,NA,NA,NA,NA,NA,false
hsmPaVMi,3t5zxgo9eh1fn0t8t5nft3pt661qzj,3z7ishfuh48b4gr6ydbhww0lp4jz8x,hsmPaVMi,2020-0188,2020-11-17,19:47:51,20:08:51,NA,incomplete,131,gender,2,1,right,A_F_13.jpg,A_M_09.jpg,C_F_02.jpg,right,1152.799999981653,true,low,NA,NA,NA,NA,NA,NA,NA,false
hsmPaVMi,3t5zxgo9eh1fn0t8t5nft3pt661qzj,3z7ishfuh48b4gr6ydbhww0lp4jz8x,hsmPaVMi,2020-0188,2020-11-17,19:47:51,20:08:51,NA,incomplete,132,gender,2,1,left,A_F_02.jpg,C_F_15.jpg,A_M_05.jpg,left,845.8749999990687,true,low,NA,NA,NA,NA,NA,NA,NA,false
hsmPaVMi,3t5zxgo9eh1fn0t8t5nft3pt661qzj,3z7ishfuh48b4gr6ydbhww0lp4jz8x,hsmPaVMi,2020-0188,2020-11-17,19:47:51,20:08:51,NA,incomplete,133,gender,2,1,right,A_M_05.jpg,A_F_10.jpg,C_M_09.jpg,right,734.9450000328943,true,low,NA,NA,NA,NA,NA,NA,NA,false
hsmPaVMi,3t5zxgo9eh1fn0t8t5nft3pt661qzj,3z7ishfuh48b4gr6ydbhww0lp4jz8x,hsmPaVMi,2020-0188,2020-11-17,19:47:51,20:08:51,NA,incomplete,134,gender,2,1,left,A_M_13.jpg,C_M_03.jpg,A_F_15.jpg,left,811.199999996461,true,low,NA,NA,NA,NA,NA,NA,NA,false
hsmPaVMi,3t5zxgo9eh1fn0t8t5nft3pt661qzj,3z7ishfuh48b4gr6ydbhww0lp4jz8x,hsmPaVMi,2020-0188,2020-11-17,19:47:51,20:08:51,NA,incomplete,135,gender,2,1,left,C_F_12.jpg,A_F_01.jpg,C_M_14.jpg,left,1128.6850000033155,true,low,NA,NA,NA,NA,NA,NA,NA,false
hsmPaVMi,3t5zxgo9eh1fn0t8t5nft3pt661qzj,3z7ishfuh48b4gr6ydbhww0lp4jz8x,hsmPaVMi,2020-0188,2020-11-17,19:47:51,20:08:51,NA,incomplete,136,gender,2,1,left,A_F_03.jpg,C_F_16.jpg,A_M_05.jpg,left,780.2449999726377,true,low,NA,NA,NA,NA,NA,NA,NA,false
hsmPaVMi,3t5zxgo9eh1fn0t8t5nft3pt661qzj,3z7ishfuh48b4gr6ydbhww0lp4jz8x,hsmPaVMi,2020-0188,2020-11-17,19:47:51,20:08:51,NA,incomplete,137,gender,2,0,left,A_F_04.jpg,C_F_08.jpg,A_M_10.jpg,left,767.6949999877252,true,low,NA,NA,NA,NA,NA,NA,NA,false
hsmPaVMi,3t5zxgo9eh1fn0t8t5nft3pt661qzj,3z7ishfuh48b4gr6ydbhww0lp4jz8x,hsmPaVMi,2020-0188,2020-11-17,19:47:51,20:08:51,NA,incomplete,138,gender,2,1,right,A_F_14.jpg,A_M_13.jpg,C_F_16.jpg,left,1173.5000000335276,false,low,NA,NA,NA,NA,NA,NA,NA,false
hsmPaVMi,3t5zxgo9eh1fn0t8t5nft3pt661qzj,3z7ishfuh48b4gr6ydbhww0lp4jz8x,hsmPaVMi,2020-0188,2020-11-17,19:47:51,20:08:51,NA,incomplete,139,gender,2,1,left,C_M_15.jpg,A_M_10.jpg,C_F_01.jpg,right,1684.7750000306405,false,low,NA,NA,NA,NA,NA,NA,NA,false
hsmPaVMi,3t5zxgo9eh1fn0t8t5nft3pt661qzj,3z7ishfuh48b4gr6ydbhww0lp4jz8x,hsmPaVMi,2020-0188,2020-11-17,19:47:51,20:08:51,NA,incomplete,140,race,3,1,right,A_F_13.jpg,C_F_16.jpg,A_M_08.jpg,left,850.4050000337884,false,low,NA,NA,NA,NA,NA,NA,NA,false
hsmPaVMi,3t5zxgo9eh1fn0t8t5nft3pt661qzj,3z7ishfuh48b4gr6ydbhww0lp4jz8x,hsmPaVMi,2020-0188,2020-11-17,19:47:51,20:08:51,NA,incomplete,141,race,3,1,left,A_M_15.jpg,A_F_08.jpg,C_M_01.jpg,right,987.34999995213,false,low,NA,NA,NA,NA,NA,NA,NA,false
hsmPaVMi,3t5zxgo9eh1fn0t8t5nft3pt661qzj,3z7ishfuh48b4gr6ydbhww0lp4jz8x,hsmPaVMi,2020-0188,2020-11-17,19:47:51,20:08:51,NA,incomplete,142,race,3,1,right,A_M_05.jpg,C_M_04.jpg,A_F_13.jpg,right,1468.590000004042,true,low,NA,NA,NA,NA,NA,NA,NA,false
hsmPaVMi,3t5zxgo9eh1fn0t8t5nft3pt661qzj,3z7ishfuh48b4gr6ydbhww0lp4jz8x,hsmPaVMi,2020-0188,2020-11-17,19:47:51,20:08:51,NA,incomplete,143,race,3,0,left,A_F_13.jpg,A_M_16.jpg,C_F_05.jpg,left,1118.7300000456162,true,low,NA,NA,NA,NA,NA,NA,NA,false
hsmPaVMi,3t5zxgo9eh1fn0t8t5nft3pt661qzj,3z7ishfuh48b4gr6ydbhww0lp4jz8x,hsmPaVMi,2020-0188,2020-11-17,19:47:51,20:08:51,NA,incomplete,144,race,3,1,left,C_F_12.jpg,C_M_04.jpg,A_F_14.jpg,none,0,false,low,NA,NA,NA,NA,NA,NA,NA,false
hsmPaVMi,3t5zxgo9eh1fn0t8t5nft3pt661qzj,3z7ishfuh48b4gr6ydbhww0lp4jz8x,hsmPaVMi,2020-0188,2020-11-17,19:47:51,20:08:51,NA,incomplete,145,race,3,1,right,C_F_10.jpg,A_F_09.jpg,C_M_08.jpg,right,1161.9150000042282,true,low,NA,NA,NA,NA,NA,NA,NA,false
hsmPaVMi,3t5zxgo9eh1fn0t8t5nft3pt661qzj,3z7ishfuh48b4gr6ydbhww0lp4jz8x,hsmPaVMi,2020-0188,2020-11-17,19:47:51,20:08:51,NA,incomplete,146,race,3,1,left,A_F_11.jpg,A_M_05.jpg,C_F_08.jpg,left,1724.7300000162795,true,low,NA,NA,NA,NA,NA,NA,NA,false
hsmPaVMi,3t5zxgo9eh1fn0t8t5nft3pt661qzj,3z7ishfuh48b4gr6ydbhww0lp4jz8x,hsmPaVMi,2020-0188,2020-11-17,19:47:51,20:08:51,NA,incomplete,147,race,3,0,right,C_F_13.jpg,A_F_05.jpg,C_M_07.jpg,right,1123.3700000448152,true,low,NA,NA,NA,NA,NA,NA,NA,false
hsmPaVMi,3t5zxgo9eh1fn0t8t5nft3pt661qzj,3z7ishfuh48b4gr6ydbhww0lp4jz8x,hsmPaVMi,2020-0188,2020-11-17,19:47:51,20:08:51,NA,incomplete,148,race,3,1,right,A_F_16.jpg,C_F_04.jpg,A_M_05.jpg,right,1201.630000025034,true,low,NA,NA,NA,NA,NA,NA,NA,false
hsmPaVMi,3t5zxgo9eh1fn0t8t5nft3pt661qzj,3z7ishfuh48b4gr6ydbhww0lp4jz8x,hsmPaVMi,2020-0188,2020-11-17,19:47:51,20:08:51,NA,incomplete,149,race,3,0,left,A_M_14.jpg,A_F_01.jpg,C_M_15.jpg,right,1623.3099999953993,false,low,NA,NA,NA,NA,NA,NA,NA,false
hsmPaVMi,3t5zxgo9eh1fn0t8t5nft3pt661qzj,3z7ishfuh48b4gr6ydbhww0lp4jz8x,hsmPaVMi,2020-0188,2020-11-17,19:47:51,20:08:51,NA,incomplete,150,race,3,1,left,A_F_04.jpg,A_M_15.jpg,C_F_10.jpg,left,1355.4099999601021,true,low,NA,NA,NA,NA,NA,NA,NA,false
hsmPaVMi,3t5zxgo9eh1fn0t8t5nft3pt661qzj,3z7ishfuh48b4gr6ydbhww0lp4jz8x,hsmPaVMi,2020-0188,2020-11-17,19:47:51,20:08:51,NA,incomplete,151,race,3,1,left,C_F_12.jpg,C_M_01.jpg,A_F_04.jpg,left,885.8749999781139,true,low,NA,NA,NA,NA,NA,NA,NA,false
hsmPaVMi,3t5zxgo9eh1fn0t8t5nft3pt661qzj,3z7ishfuh48b4gr6ydbhww0lp4jz8x,hsmPaVMi,2020-0188,2020-11-17,19:47:51,20:08:51,NA,incomplete,152,race,3,1,right,A_F_13.jpg,C_F_01.jpg,A_M_05.jpg,right,1073.7949999747798,true,low,NA,NA,NA,NA,NA,NA,NA,false
hsmPaVMi,3t5zxgo9eh1fn0t8t5nft3pt661qzj,3z7ishfuh48b4gr6ydbhww0lp4jz8x,hsmPaVMi,2020-0188,2020-11-17,19:47:51,20:08:51,NA,incomplete,153,race,3,1,right,C_F_10.jpg,A_F_06.jpg,C_M_13.jpg,right,1294.8700000415556,true,low,NA,NA,NA,NA,NA,NA,NA,false
hsmPaVMi,3t5zxgo9eh1fn0t8t5nft3pt661qzj,3z7ishfuh48b4gr6ydbhww0lp4jz8x,hsmPaVMi,2020-0188,2020-11-17,19:47:51,20:08:51,NA,incomplete,154,race,3,0,right,A_F_01.jpg,C_F_14.jpg,A_M_13.jpg,right,1087.7949999994598,true,low,NA,NA,NA,NA,NA,NA,NA,false
hsmPaVMi,3t5zxgo9eh1fn0t8t5nft3pt661qzj,3z7ishfuh48b4gr6ydbhww0lp4jz8x,hsmPaVMi,2020-0188,2020-11-17,19:47:51,20:08:51,NA,incomplete,155,race,3,1,left,A_F_06.jpg,A_M_15.jpg,C_F_16.jpg,right,1334.4250000081956,false,low,NA,NA,NA,NA,NA,NA,NA,false
hsmPaVMi,3t5zxgo9eh1fn0t8t5nft3pt661qzj,3z7ishfuh48b4gr6ydbhww0lp4jz8x,hsmPaVMi,2020-0188,2020-11-17,19:47:51,20:08:51,NA,incomplete,156,race,3,1,right,A_F_11.jpg,C_F_08.jpg,A_M_02.jpg,none,0,false,low,NA,NA,NA,NA,NA,NA,NA,false
hsmPaVMi,3t5zxgo9eh1fn0t8t5nft3pt661qzj,3z7ishfuh48b4gr6ydbhww0lp4jz8x,hsmPaVMi,2020-0188,2020-11-17,19:47:51,20:08:51,NA,incomplete,157,race,3,1,right,A_F_02.jpg,C_F_15.jpg,A_M_16.jpg,right,1481.3200000207871,true,low,NA,NA,NA,NA,NA,NA,NA,false
hsmPaVMi,3t5zxgo9eh1fn0t8t5nft3pt661qzj,3z7ishfuh48b4gr6ydbhww0lp4jz8x,hsmPaVMi,2020-0188,2020-11-17,19:47:51,20:08:51,NA,incomplete,158,race,3,0,right,C_F_09.jpg,A_F_06.jpg,C_M_01.jpg,right,1495.2349999803118,true,low,NA,NA,NA,NA,NA,NA,NA,false
hsmPaVMi,3t5zxgo9eh1fn0t8t5nft3pt661qzj,3z7ishfuh48b4gr6ydbhww0lp4jz8x,hsmPaVMi,2020-0188,2020-11-17,19:47:51,20:08:51,NA,incomplete,159,race,3,1,right,C_F_05.jpg,A_F_03.jpg,C_M_07.jpg,right,1111.4199999719858,true,low,NA,NA,NA,NA,NA,NA,NA,false
hsmPaVMi,3t5zxgo9eh1fn0t8t5nft3pt661qzj,3z7ishfuh48b4gr6ydbhww0lp4jz8x,hsmPaVMi,2020-0188,2020-11-17,19:47:51,20:08:51,NA,incomplete,160,gender,2,1,right,A_F_07.jpg,A_M_02.jpg,C_F_10.jpg,left,1845.3049999661744,false,low,NA,NA,NA,NA,NA,NA,NA,false
hsmPaVMi,3t5zxgo9eh1fn0t8t5nft3pt661qzj,3z7ishfuh48b4gr6ydbhww0lp4jz8x,hsmPaVMi,2020-0188,2020-11-17,19:47:51,20:08:51,NA,incomplete,161,gender,2,0,left,A_M_08.jpg,C_M_06.jpg,A_F_14.jpg,right,1057.1950000012293,false,low,NA,NA,NA,NA,NA,NA,NA,false
hsmPaVMi,3t5zxgo9eh1fn0t8t5nft3pt661qzj,3z7ishfuh48b4gr6ydbhww0lp4jz8x,hsmPaVMi,2020-0188,2020-11-17,19:47:51,20:08:51,NA,incomplete,162,gender,2,1,left,A_M_12.jpg,C_M_01.jpg,A_F_16.jpg,right,1407.4150000233203,false,low,NA,NA,NA,NA,NA,NA,NA,false
hsmPaVMi,3t5zxgo9eh1fn0t8t5nft3pt661qzj,3z7ishfuh48b4gr6ydbhww0lp4jz8x,hsmPaVMi,2020-0188,2020-11-17,19:47:51,20:08:51,NA,incomplete,163,gender,2,1,right,C_M_08.jpg,C_F_03.jpg,A_M_07.jpg,left,913.8049999601208,false,low,NA,NA,NA,NA,NA,NA,NA,false
hsmPaVMi,3t5zxgo9eh1fn0t8t5nft3pt661qzj,3z7ishfuh48b4gr6ydbhww0lp4jz8x,hsmPaVMi,2020-0188,2020-11-17,19:47:51,20:08:51,NA,incomplete,164,gender,2,1,right,A_F_04.jpg,A_M_16.jpg,C_F_06.jpg,right,697.0500000170432,true,low,NA,NA,NA,NA,NA,NA,NA,false
hsmPaVMi,3t5zxgo9eh1fn0t8t5nft3pt661qzj,3z7ishfuh48b4gr6ydbhww0lp4jz8x,hsmPaVMi,2020-0188,2020-11-17,19:47:51,20:08:51,NA,incomplete,165,gender,2,1,left,C_M_15.jpg,A_M_14.jpg,C_F_09.jpg,left,943.3399999979883,true,low,NA,NA,NA,NA,NA,NA,NA,false
hsmPaVMi,3t5zxgo9eh1fn0t8t5nft3pt661qzj,3z7ishfuh48b4gr6ydbhww0lp4jz8x,hsmPaVMi,2020-0188,2020-11-17,19:47:51,20:08:51,NA,incomplete,166,gender,2,0,right,C_M_12.jpg,C_F_16.jpg,A_M_15.jpg,right,869.234999991022,true,low,NA,NA,NA,NA,NA,NA,NA,false
hsmPaVMi,3t5zxgo9eh1fn0t8t5nft3pt661qzj,3z7ishfuh48b4gr6ydbhww0lp4jz8x,hsmPaVMi,2020-0188,2020-11-17,19:47:51,20:08:51,NA,incomplete,167,gender,2,1,right,C_F_02.jpg,C_M_13.jpg,A_F_07.jpg,right,936.7400000337511,true,low,NA,NA,NA,NA,NA,NA,NA,false
hsmPaVMi,3t5zxgo9eh1fn0t8t5nft3pt661qzj,3z7ishfuh48b4gr6ydbhww0lp4jz8x,hsmPaVMi,2020-0188,2020-11-17,19:47:51,20:08:51,NA,incomplete,168,gender,2,1,right,A_F_04.jpg,A_M_09.jpg,C_F_12.jpg,right,839.0099999960512,true,low,NA,NA,NA,NA,NA,NA,NA,false
hsmPaVMi,3t5zxgo9eh1fn0t8t5nft3pt661qzj,3z7ishfuh48b4gr6ydbhww0lp4jz8x,hsmPaVMi,2020-0188,2020-11-17,19:47:51,20:08:51,NA,incomplete,169,gender,2,1,left,A_F_14.jpg,C_F_15.jpg,A_M_10.jpg,left,775.6400000071153,true,low,NA,NA,NA,NA,NA,NA,NA,false
hsmPaVMi,3t5zxgo9eh1fn0t8t5nft3pt661qzj,3z7ishfuh48b4gr6ydbhww0lp4jz8x,hsmPaVMi,2020-0188,2020-11-17,19:47:51,20:08:51,NA,incomplete,170,gender,2,1,right,C_F_06.jpg,C_M_04.jpg,A_F_07.jpg,right,670.5250000231899,true,low,NA,NA,NA,NA,NA,NA,NA,false
hsmPaVMi,3t5zxgo9eh1fn0t8t5nft3pt661qzj,3z7ishfuh48b4gr6ydbhww0lp4jz8x,hsmPaVMi,2020-0188,2020-11-17,19:47:51,20:08:51,NA,incomplete,171,gender,2,0,right,A_F_06.jpg,A_M_14.jpg,C_F_13.jpg,left,1449.495000008028,false,low,NA,NA,NA,NA,NA,NA,NA,false
hsmPaVMi,3t5zxgo9eh1fn0t8t5nft3pt661qzj,3z7ishfuh48b4gr6ydbhww0lp4jz8x,hsmPaVMi,2020-0188,2020-11-17,19:47:51,20:08:51,NA,incomplete,172,gender,2,1,right,C_F_14.jpg,C_M_15.jpg,A_F_12.jpg,right,947.1649999613874,true,low,NA,NA,NA,NA,NA,NA,NA,false
hsmPaVMi,3t5zxgo9eh1fn0t8t5nft3pt661qzj,3z7ishfuh48b4gr6ydbhww0lp4jz8x,hsmPaVMi,2020-0188,2020-11-17,19:47:51,20:08:51,NA,incomplete,173,gender,2,1,right,A_F_03.jpg,A_M_13.jpg,C_F_11.jpg,right,697.9200000059791,true,low,NA,NA,NA,NA,NA,NA,NA,false
hsmPaVMi,3t5zxgo9eh1fn0t8t5nft3pt661qzj,3z7ishfuh48b4gr6ydbhww0lp4jz8x,hsmPaVMi,2020-0188,2020-11-17,19:47:51,20:08:51,NA,incomplete,174,gender,2,1,right,A_F_02.jpg,A_M_07.jpg,C_F_09.jpg,right,652.9349999618717,true,low,NA,NA,NA,NA,NA,NA,NA,false
hsmPaVMi,3t5zxgo9eh1fn0t8t5nft3pt661qzj,3z7ishfuh48b4gr6ydbhww0lp4jz8x,hsmPaVMi,2020-0188,2020-11-17,19:47:51,20:08:51,NA,incomplete,175,gender,2,1,right,A_M_15.jpg,A_F_16.jpg,C_M_04.jpg,right,1072.7499999920838,true,low,NA,NA,NA,NA,NA,NA,NA,false
hsmPaVMi,3t5zxgo9eh1fn0t8t5nft3pt661qzj,3z7ishfuh48b4gr6ydbhww0lp4jz8x,hsmPaVMi,2020-0188,2020-11-17,19:47:51,20:08:51,NA,incomplete,176,gender,2,1,right,A_F_14.jpg,A_M_07.jpg,C_F_12.jpg,right,727.3649999988265,true,low,NA,NA,NA,NA,NA,NA,NA,false
hsmPaVMi,3t5zxgo9eh1fn0t8t5nft3pt661qzj,3z7ishfuh48b4gr6ydbhww0lp4jz8x,hsmPaVMi,2020-0188,2020-11-17,19:47:51,20:08:51,NA,incomplete,177,gender,2,0,left,C_F_13.jpg,A_F_05.jpg,C_M_11.jpg,left,765.3050000080839,true,low,NA,NA,NA,NA,NA,NA,NA,false
hsmPaVMi,3t5zxgo9eh1fn0t8t5nft3pt661qzj,3z7ishfuh48b4gr6ydbhww0lp4jz8x,hsmPaVMi,2020-0188,2020-11-17,19:47:51,20:08:51,NA,incomplete,178,gender,2,1,left,C_M_02.jpg,A_M_05.jpg,C_F_14.jpg,left,814.7200000239536,true,low,NA,NA,NA,NA,NA,NA,NA,false
hsmPaVMi,3t5zxgo9eh1fn0t8t5nft3pt661qzj,3z7ishfuh48b4gr6ydbhww0lp4jz8x,hsmPaVMi,2020-0188,2020-11-17,19:47:51,20:08:51,NA,incomplete,179,gender,2,1,right,C_F_04.jpg,C_M_08.jpg,A_F_16.jpg,right,702.240000013262,true,low,NA,NA,NA,NA,NA,NA,NA,false
hsmPaVMi,3t5zxgo9eh1fn0t8t5nft3pt661qzj,3z7ishfuh48b4gr6ydbhww0lp4jz8x,hsmPaVMi,2020-0188,2020-11-17,19:47:51,20:08:51,NA,incomplete,180,race,3,1,right,C_F_11.jpg,A_F_08.jpg,C_M_09.jpg,left,718.9450000296347,false,low,NA,NA,NA,NA,NA,NA,NA,false
hsmPaVMi,3t5zxgo9eh1fn0t8t5nft3pt661qzj,3z7ishfuh48b4gr6ydbhww0lp4jz8x,hsmPaVMi,2020-0188,2020-11-17,19:47:51,20:08:51,NA,incomplete,181,race,3,1,right,C_F_16.jpg,A_F_14.jpg,C_M_09.jpg,left,1386.56000001356,false,low,NA,NA,NA,NA,NA,NA,NA,false
hsmPaVMi,3t5zxgo9eh1fn0t8t5nft3pt661qzj,3z7ishfuh48b4gr6ydbhww0lp4jz8x,hsmPaVMi,2020-0188,2020-11-17,19:47:51,20:08:51,NA,incomplete,182,race,3,1,right,A_M_05.jpg,C_M_10.jpg,A_F_07.jpg,left,1110.8900000108406,false,low,NA,NA,NA,NA,NA,NA,NA,false
hsmPaVMi,3t5zxgo9eh1fn0t8t5nft3pt661qzj,3z7ishfuh48b4gr6ydbhww0lp4jz8x,hsmPaVMi,2020-0188,2020-11-17,19:47:51,20:08:51,NA,incomplete,183,race,3,1,right,A_M_07.jpg,C_M_09.jpg,A_F_06.jpg,right,859.2250000219792,true,low,NA,NA,NA,NA,NA,NA,NA,false
hsmPaVMi,3t5zxgo9eh1fn0t8t5nft3pt661qzj,3z7ishfuh48b4gr6ydbhww0lp4jz8x,hsmPaVMi,2020-0188,2020-11-17,19:47:51,20:08:51,NA,incomplete,184,race,3,1,right,C_F_09.jpg,A_F_06.jpg,C_M_05.jpg,right,1361.5050000371411,true,low,NA,NA,NA,NA,NA,NA,NA,false
hsmPaVMi,3t5zxgo9eh1fn0t8t5nft3pt661qzj,3z7ishfuh48b4gr6ydbhww0lp4jz8x,hsmPaVMi,2020-0188,2020-11-17,19:47:51,20:08:51,NA,incomplete,185,race,3,1,left,A_F_05.jpg,A_M_11.jpg,C_F_13.jpg,left,817.5899999914691,true,low,NA,NA,NA,NA,NA,NA,NA,false
hsmPaVMi,3t5zxgo9eh1fn0t8t5nft3pt661qzj,3z7ishfuh48b4gr6ydbhww0lp4jz8x,hsmPaVMi,2020-0188,2020-11-17,19:47:51,20:08:51,NA,incomplete,186,race,3,1,right,C_F_16.jpg,A_F_10.jpg,C_M_11.jpg,right,831.194999977015,true,low,NA,NA,NA,NA,NA,NA,NA,false
hsmPaVMi,3t5zxgo9eh1fn0t8t5nft3pt661qzj,3z7ishfuh48b4gr6ydbhww0lp4jz8x,hsmPaVMi,2020-0188,2020-11-17,19:47:51,20:08:51,NA,incomplete,187,race,3,0,right,C_M_03.jpg,A_M_02.jpg,C_F_14.jpg,right,966.0999999614432,true,low,NA,NA,NA,NA,NA,NA,NA,false
hsmPaVMi,3t5zxgo9eh1fn0t8t5nft3pt661qzj,3z7ishfuh48b4gr6ydbhww0lp4jz8x,hsmPaVMi,2020-0188,2020-11-17,19:47:51,20:08:51,NA,incomplete,188,race,3,1,left,A_M_06.jpg,A_F_05.jpg,C_M_16.jpg,right,1127.4800000246614,false,low,NA,NA,NA,NA,NA,NA,NA,false
hsmPaVMi,3t5zxgo9eh1fn0t8t5nft3pt661qzj,3z7ishfuh48b4gr6ydbhww0lp4jz8x,hsmPaVMi,2020-0188,2020-11-17,19:47:51,20:08:51,NA,incomplete,189,race,3,0,right,A_F_09.jpg,C_F_08.jpg,A_M_04.jpg,right,880.7349999551661,true,low,NA,NA,NA,NA,NA,NA,NA,false
hsmPaVMi,3t5zxgo9eh1fn0t8t5nft3pt661qzj,3z7ishfuh48b4gr6ydbhww0lp4jz8x,hsmPaVMi,2020-0188,2020-11-17,19:47:51,20:08:51,NA,incomplete,190,race,3,1,left,C_F_05.jpg,C_M_16.jpg,A_F_08.jpg,left,802.1000000298955,true,low,NA,NA,NA,NA,NA,NA,NA,false
hsmPaVMi,3t5zxgo9eh1fn0t8t5nft3pt661qzj,3z7ishfuh48b4gr6ydbhww0lp4jz8x,hsmPaVMi,2020-0188,2020-11-17,19:47:51,20:08:51,NA,incomplete,191,race,3,1,left,A_M_02.jpg,A_F_01.jpg,C_M_03.jpg,left,957.7750000171363,true,low,NA,NA,NA,NA,NA,NA,NA,false
hsmPaVMi,3t5zxgo9eh1fn0t8t5nft3pt661qzj,3z7ishfuh48b4gr6ydbhww0lp4jz8x,hsmPaVMi,2020-0188,2020-11-17,19:47:51,20:08:51,NA,incomplete,192,race,3,0,left,C_M_05.jpg,C_F_08.jpg,A_M_07.jpg,left,1222.490000014659,true,low,NA,NA,NA,NA,NA,NA,NA,false
hsmPaVMi,3t5zxgo9eh1fn0t8t5nft3pt661qzj,3z7ishfuh48b4gr6ydbhww0lp4jz8x,hsmPaVMi,2020-0188,2020-11-17,19:47:51,20:08:51,NA,incomplete,193,race,3,1,left,C_F_11.jpg,C_M_03.jpg,A_F_01.jpg,left,1112.169999978505,true,low,NA,NA,NA,NA,NA,NA,NA,false
hsmPaVMi,3t5zxgo9eh1fn0t8t5nft3pt661qzj,3z7ishfuh48b4gr6ydbhww0lp4jz8x,hsmPaVMi,2020-0188,2020-11-17,19:47:51,20:08:51,NA,incomplete,194,race,3,0,left,A_F_06.jpg,A_M_04.jpg,C_F_15.jpg,left,890.1749999495223,true,low,NA,NA,NA,NA,NA,NA,NA,false
hsmPaVMi,3t5zxgo9eh1fn0t8t5nft3pt661qzj,3z7ishfuh48b4gr6ydbhww0lp4jz8x,hsmPaVMi,2020-0188,2020-11-17,19:47:51,20:08:51,NA,incomplete,195,race,3,1,left,A_M_14.jpg,A_F_10.jpg,C_M_08.jpg,left,1155.07500001695,true,low,NA,NA,NA,NA,NA,NA,NA,false
hsmPaVMi,3t5zxgo9eh1fn0t8t5nft3pt661qzj,3z7ishfuh48b4gr6ydbhww0lp4jz8x,hsmPaVMi,2020-0188,2020-11-17,19:47:51,20:08:51,NA,incomplete,196,race,3,1,right,A_F_12.jpg,C_F_06.jpg,A_M_02.jpg,right,1068.1600000243634,true,low,NA,NA,NA,NA,NA,NA,NA,false
hsmPaVMi,3t5zxgo9eh1fn0t8t5nft3pt661qzj,3z7ishfuh48b4gr6ydbhww0lp4jz8x,hsmPaVMi,2020-0188,2020-11-17,19:47:51,20:08:51,NA,incomplete,197,race,3,1,left,A_M_10.jpg,A_F_12.jpg,C_M_08.jpg,left,1055.0449999864213,true,low,NA,NA,NA,NA,NA,NA,NA,false
hsmPaVMi,3t5zxgo9eh1fn0t8t5nft3pt661qzj,3z7ishfuh48b4gr6ydbhww0lp4jz8x,hsmPaVMi,2020-0188,2020-11-17,19:47:51,20:08:51,NA,incomplete,198,race,3,1,left,C_M_03.jpg,C_F_02.jpg,A_M_13.jpg,left,892.0400000060908,true,low,NA,NA,NA,NA,NA,NA,NA,false
hsmPaVMi,3t5zxgo9eh1fn0t8t5nft3pt661qzj,3z7ishfuh48b4gr6ydbhww0lp4jz8x,hsmPaVMi,2020-0188,2020-11-17,19:47:51,20:08:51,NA,incomplete,199,race,3,1,right,C_M_11.jpg,A_M_04.jpg,C_F_03.jpg,right,938.6349999695085,true,low,NA,NA,NA,NA,NA,NA,NA,false
hsmPaVMi,3t5zxgo9eh1fn0t8t5nft3pt661qzj,3z7ishfuh48b4gr6ydbhww0lp4jz8x,hsmPaVMi,2020-0188,2020-11-17,19:47:51,20:08:51,NA,incomplete,200,gender,2,1,left,A_F_03.jpg,C_F_01.jpg,A_M_11.jpg,left,1147.3299999488518,true,low,NA,NA,NA,NA,NA,NA,NA,false
hsmPaVMi,3t5zxgo9eh1fn0t8t5nft3pt661qzj,3z7ishfuh48b4gr6ydbhww0lp4jz8x,hsmPaVMi,2020-0188,2020-11-17,19:47:51,20:08:51,NA,incomplete,201,gender,2,1,right,C_M_07.jpg,C_F_13.jpg,A_M_10.jpg,right,1289.2650000285357,true,low,NA,NA,NA,NA,NA,NA,NA,false
hsmPaVMi,3t5zxgo9eh1fn0t8t5nft3pt661qzj,3z7ishfuh48b4gr6ydbhww0lp4jz8x,hsmPaVMi,2020-0188,2020-11-17,19:47:51,20:08:51,NA,incomplete,202,gender,2,1,left,C_M_09.jpg,A_M_13.jpg,C_F_12.jpg,right,1354.155000008177,false,low,NA,NA,NA,NA,NA,NA,NA,false
hsmPaVMi,3t5zxgo9eh1fn0t8t5nft3pt661qzj,3z7ishfuh48b4gr6ydbhww0lp4jz8x,hsmPaVMi,2020-0188,2020-11-17,19:47:51,20:08:51,NA,incomplete,203,gender,2,1,right,C_F_16.jpg,C_M_04.jpg,A_F_14.jpg,left,839.7299999487586,false,low,NA,NA,NA,NA,NA,NA,NA,false
hsmPaVMi,3t5zxgo9eh1fn0t8t5nft3pt661qzj,3z7ishfuh48b4gr6ydbhww0lp4jz8x,hsmPaVMi,2020-0188,2020-11-17,19:47:51,20:08:51,NA,incomplete,204,gender,2,1,right,C_F_13.jpg,C_M_07.jpg,A_F_02.jpg,right,1259.940000018105,true,low,NA,NA,NA,NA,NA,NA,NA,false
hsmPaVMi,3t5zxgo9eh1fn0t8t5nft3pt661qzj,3z7ishfuh48b4gr6ydbhww0lp4jz8x,hsmPaVMi,2020-0188,2020-11-17,19:47:51,20:08:51,NA,incomplete,205,gender,2,1,left,A_M_12.jpg,C_M_15.jpg,A_F_04.jpg,left,675.2349999733269,true,low,NA,NA,NA,NA,NA,NA,NA,false
hsmPaVMi,3t5zxgo9eh1fn0t8t5nft3pt661qzj,3z7ishfuh48b4gr6ydbhww0lp4jz8x,hsmPaVMi,2020-0188,2020-11-17,19:47:51,20:08:51,NA,incomplete,206,gender,2,1,left,C_F_08.jpg,A_F_07.jpg,C_M_15.jpg,left,955.5849999887869,true,low,NA,NA,NA,NA,NA,NA,NA,false
hsmPaVMi,3t5zxgo9eh1fn0t8t5nft3pt661qzj,3z7ishfuh48b4gr6ydbhww0lp4jz8x,hsmPaVMi,2020-0188,2020-11-17,19:47:51,20:08:51,NA,incomplete,207,gender,2,1,left,C_M_11.jpg,A_M_02.jpg,C_F_16.jpg,left,837.534999998752,true,low,NA,NA,NA,NA,NA,NA,NA,false
hsmPaVMi,3t5zxgo9eh1fn0t8t5nft3pt661qzj,3z7ishfuh48b4gr6ydbhww0lp4jz8x,hsmPaVMi,2020-0188,2020-11-17,19:47:51,20:08:51,NA,incomplete,208,gender,2,1,left,A_F_13.jpg,C_F_04.jpg,A_M_01.jpg,right,828.2100000069477,false,low,NA,NA,NA,NA,NA,NA,NA,false
hsmPaVMi,3t5zxgo9eh1fn0t8t5nft3pt661qzj,3z7ishfuh48b4gr6ydbhww0lp4jz8x,hsmPaVMi,2020-0188,2020-11-17,19:47:51,20:08:51,NA,incomplete,209,gender,2,1,left,A_M_09.jpg,C_M_07.jpg,A_F_03.jpg,left,731.7550000152551,true,low,NA,NA,NA,NA,NA,NA,NA,false
hsmPaVMi,3t5zxgo9eh1fn0t8t5nft3pt661qzj,3z7ishfuh48b4gr6ydbhww0lp4jz8x,hsmPaVMi,2020-0188,2020-11-17,19:47:51,20:08:51,NA,incomplete,210,gender,2,0,right,C_F_01.jpg,C_M_09.jpg,A_F_14.jpg,right,843.6199999996461,true,low,NA,NA,NA,NA,NA,NA,NA,false
hsmPaVMi,3t5zxgo9eh1fn0t8t5nft3pt661qzj,3z7ishfuh48b4gr6ydbhww0lp4jz8x,hsmPaVMi,2020-0188,2020-11-17,19:47:51,20:08:51,NA,incomplete,211,gender,2,1,right,C_F_10.jpg,C_M_11.jpg,A_F_09.jpg,right,655.5400000070222,true,low,NA,NA,NA,NA,NA,NA,NA,false
hsmPaVMi,3t5zxgo9eh1fn0t8t5nft3pt661qzj,3z7ishfuh48b4gr6ydbhww0lp4jz8x,hsmPaVMi,2020-0188,2020-11-17,19:47:51,20:08:51,NA,incomplete,212,gender,2,1,right,A_F_02.jpg,A_M_06.jpg,C_F_14.jpg,right,614.1500000376254,true,low,NA,NA,NA,NA,NA,NA,NA,false
hsmPaVMi,3t5zxgo9eh1fn0t8t5nft3pt661qzj,3z7ishfuh48b4gr6ydbhww0lp4jz8x,hsmPaVMi,2020-0188,2020-11-17,19:47:51,20:08:51,NA,incomplete,213,gender,2,0,right,A_F_15.jpg,A_M_06.jpg,C_F_13.jpg,right,554.3350000516511,true,low,NA,NA,NA,NA,NA,NA,NA,false
hsmPaVMi,3t5zxgo9eh1fn0t8t5nft3pt661qzj,3z7ishfuh48b4gr6ydbhww0lp4jz8x,hsmPaVMi,2020-0188,2020-11-17,19:47:51,20:08:51,NA,incomplete,214,gender,2,1,right,A_F_01.jpg,A_M_10.jpg,C_F_13.jpg,right,598.4649999882095,true,low,NA,NA,NA,NA,NA,NA,NA,false
hsmPaVMi,3t5zxgo9eh1fn0t8t5nft3pt661qzj,3z7ishfuh48b4gr6ydbhww0lp4jz8x,hsmPaVMi,2020-0188,2020-11-17,19:47:51,20:08:51,NA,incomplete,215,gender,2,1,left,C_M_01.jpg,A_M_06.jpg,C_F_08.jpg,left,796.0500000044703,true,low,NA,NA,NA,NA,NA,NA,NA,false
hsmPaVMi,3t5zxgo9eh1fn0t8t5nft3pt661qzj,3z7ishfuh48b4gr6ydbhww0lp4jz8x,hsmPaVMi,2020-0188,2020-11-17,19:47:51,20:08:51,NA,incomplete,216,gender,2,0,right,C_F_08.jpg,C_M_04.jpg,A_F_02.jpg,right,643.854999972973,true,low,NA,NA,NA,NA,NA,NA,NA,false
hsmPaVMi,3t5zxgo9eh1fn0t8t5nft3pt661qzj,3z7ishfuh48b4gr6ydbhww0lp4jz8x,hsmPaVMi,2020-0188,2020-11-17,19:47:51,20:08:51,NA,incomplete,217,gender,2,1,right,C_M_04.jpg,C_F_05.jpg,A_M_03.jpg,left,581.609999993816,false,low,NA,NA,NA,NA,NA,NA,NA,false
hsmPaVMi,3t5zxgo9eh1fn0t8t5nft3pt661qzj,3z7ishfuh48b4gr6ydbhww0lp4jz8x,hsmPaVMi,2020-0188,2020-11-17,19:47:51,20:08:51,NA,incomplete,218,gender,2,1,right,A_F_16.jpg,A_M_12.jpg,C_F_06.jpg,right,597.1200000494719,true,low,NA,NA,NA,NA,NA,NA,NA,false
hsmPaVMi,3t5zxgo9eh1fn0t8t5nft3pt661qzj,3z7ishfuh48b4gr6ydbhww0lp4jz8x,hsmPaVMi,2020-0188,2020-11-17,19:47:51,20:08:51,NA,incomplete,219,gender,2,1,right,C_F_01.jpg,C_M_10.jpg,A_F_16.jpg,right,993.6999999918044,true,low,NA,NA,NA,NA,NA,NA,NA,false
hsmPaVMi,3t5zxgo9eh1fn0t8t5nft3pt661qzj,3z7ishfuh48b4gr6ydbhww0lp4jz8x,hsmPaVMi,2020-0188,2020-11-17,19:47:51,20:08:51,NA,incomplete,220,race,3,1,left,A_M_14.jpg,A_F_10.jpg,C_M_13.jpg,right,991.5199999813922,false,low,NA,NA,NA,NA,NA,NA,NA,false
hsmPaVMi,3t5zxgo9eh1fn0t8t5nft3pt661qzj,3z7ishfuh48b4gr6ydbhww0lp4jz8x,hsmPaVMi,2020-0188,2020-11-17,19:47:51,20:08:51,NA,incomplete,221,race,3,0,left,C_F_07.jpg,C_M_11.jpg,A_F_03.jpg,right,734.7450000233948,false,low,NA,NA,NA,NA,NA,NA,NA,false
hsmPaVMi,3t5zxgo9eh1fn0t8t5nft3pt661qzj,3z7ishfuh48b4gr6ydbhww0lp4jz8x,hsmPaVMi,2020-0188,2020-11-17,19:47:51,20:08:51,NA,incomplete,222,race,3,1,right,A_F_10.jpg,C_F_11.jpg,A_M_05.jpg,left,922.8200000361539,false,low,NA,NA,NA,NA,NA,NA,NA,false
hsmPaVMi,3t5zxgo9eh1fn0t8t5nft3pt661qzj,3z7ishfuh48b4gr6ydbhww0lp4jz8x,hsmPaVMi,2020-0188,2020-11-17,19:47:51,20:08:51,NA,incomplete,223,race,3,1,left,A_F_02.jpg,A_M_03.jpg,C_F_01.jpg,right,882.549999980256,false,low,NA,NA,NA,NA,NA,NA,NA,false
hsmPaVMi,3t5zxgo9eh1fn0t8t5nft3pt661qzj,3z7ishfuh48b4gr6ydbhww0lp4jz8x,hsmPaVMi,2020-0188,2020-11-17,19:47:51,20:08:51,NA,incomplete,224,race,3,1,right,C_F_02.jpg,A_F_09.jpg,C_M_15.jpg,left,770.8700000075623,false,low,NA,NA,NA,NA,NA,NA,NA,false
hsmPaVMi,3t5zxgo9eh1fn0t8t5nft3pt661qzj,3z7ishfuh48b4gr6ydbhww0lp4jz8x,hsmPaVMi,2020-0188,2020-11-17,19:47:51,20:08:51,NA,incomplete,225,race,3,0,left,C_F_13.jpg,C_M_09.jpg,A_F_02.jpg,left,1359.244999999646,true,low,NA,NA,NA,NA,NA,NA,NA,false
hsmPaVMi,3t5zxgo9eh1fn0t8t5nft3pt661qzj,3z7ishfuh48b4gr6ydbhww0lp4jz8x,hsmPaVMi,2020-0188,2020-11-17,19:47:51,20:08:51,NA,incomplete,226,race,3,1,left,C_F_13.jpg,C_M_07.jpg,A_F_08.jpg,right,823.5899999854155,false,low,NA,NA,NA,NA,NA,NA,NA,false
hsmPaVMi,3t5zxgo9eh1fn0t8t5nft3pt661qzj,3z7ishfuh48b4gr6ydbhww0lp4jz8x,hsmPaVMi,2020-0188,2020-11-17,19:47:51,20:08:51,NA,incomplete,227,race,3,1,right,A_M_01.jpg,C_M_15.jpg,A_F_13.jpg,right,882.6950000366196,true,low,NA,NA,NA,NA,NA,NA,NA,false
hsmPaVMi,3t5zxgo9eh1fn0t8t5nft3pt661qzj,3z7ishfuh48b4gr6ydbhww0lp4jz8x,hsmPaVMi,2020-0188,2020-11-17,19:47:51,20:08:51,NA,incomplete,228,race,3,1,right,A_F_01.jpg,C_F_03.jpg,A_M_14.jpg,left,1355.5800000322051,false,low,NA,NA,NA,NA,NA,NA,NA,false
hsmPaVMi,3t5zxgo9eh1fn0t8t5nft3pt661qzj,3z7ishfuh48b4gr6ydbhww0lp4jz8x,hsmPaVMi,2020-0188,2020-11-17,19:47:51,20:08:51,NA,incomplete,229,race,3,1,right,A_M_13.jpg,C_M_14.jpg,A_F_11.jpg,left,1114.6750000189058,false,low,NA,NA,NA,NA,NA,NA,NA,false
hsmPaVMi,3t5zxgo9eh1fn0t8t5nft3pt661qzj,3z7ishfuh48b4gr6ydbhww0lp4jz8x,hsmPaVMi,2020-0188,2020-11-17,19:47:51,20:08:51,NA,incomplete,230,race,3,1,left,C_F_09.jpg,C_M_12.jpg,A_F_02.jpg,left,771.1450000060722,true,low,NA,NA,NA,NA,NA,NA,NA,false
hsmPaVMi,3t5zxgo9eh1fn0t8t5nft3pt661qzj,3z7ishfuh48b4gr6ydbhww0lp4jz8x,hsmPaVMi,2020-0188,2020-11-17,19:47:51,20:08:51,NA,incomplete,231,race,3,0,left,C_M_13.jpg,C_F_12.jpg,A_M_08.jpg,left,940.694999997504,true,low,NA,NA,NA,NA,NA,NA,NA,false
hsmPaVMi,3t5zxgo9eh1fn0t8t5nft3pt661qzj,3z7ishfuh48b4gr6ydbhww0lp4jz8x,hsmPaVMi,2020-0188,2020-11-17,19:47:51,20:08:51,NA,incomplete,232,race,3,1,right,A_F_14.jpg,C_F_09.jpg,A_M_01.jpg,right,1279.6999999554828,true,low,NA,NA,NA,NA,NA,NA,NA,false
hsmPaVMi,3t5zxgo9eh1fn0t8t5nft3pt661qzj,3z7ishfuh48b4gr6ydbhww0lp4jz8x,hsmPaVMi,2020-0188,2020-11-17,19:47:51,20:08:51,NA,incomplete,233,race,3,0,left,A_F_12.jpg,A_M_04.jpg,C_F_10.jpg,left,928.6350000184029,true,low,NA,NA,NA,NA,NA,NA,NA,false
hsmPaVMi,3t5zxgo9eh1fn0t8t5nft3pt661qzj,3z7ishfuh48b4gr6ydbhww0lp4jz8x,hsmPaVMi,2020-0188,2020-11-17,19:47:51,20:08:51,NA,incomplete,234,race,3,1,right,A_F_15.jpg,C_F_08.jpg,A_M_06.jpg,right,914.7849999717437,true,low,NA,NA,NA,NA,NA,NA,NA,false
hsmPaVMi,3t5zxgo9eh1fn0t8t5nft3pt661qzj,3z7ishfuh48b4gr6ydbhww0lp4jz8x,hsmPaVMi,2020-0188,2020-11-17,19:47:51,20:08:51,NA,incomplete,235,race,3,1,left,A_F_03.jpg,A_M_14.jpg,C_F_10.jpg,left,1061.8300000205636,true,low,NA,NA,NA,NA,NA,NA,NA,false
hsmPaVMi,3t5zxgo9eh1fn0t8t5nft3pt661qzj,3z7ishfuh48b4gr6ydbhww0lp4jz8x,hsmPaVMi,2020-0188,2020-11-17,19:47:51,20:08:51,NA,incomplete,236,race,3,1,right,A_M_13.jpg,C_M_06.jpg,A_F_07.jpg,right,891.6899999603629,true,low,NA,NA,NA,NA,NA,NA,NA,false
hsmPaVMi,3t5zxgo9eh1fn0t8t5nft3pt661qzj,3z7ishfuh48b4gr6ydbhww0lp4jz8x,hsmPaVMi,2020-0188,2020-11-17,19:47:51,20:08:51,NA,incomplete,237,race,3,1,left,A_F_14.jpg,A_M_05.jpg,C_F_09.jpg,left,988.3599999593571,true,low,NA,NA,NA,NA,NA,NA,NA,false
hsmPaVMi,3t5zxgo9eh1fn0t8t5nft3pt661qzj,3z7ishfuh48b4gr6ydbhww0lp4jz8x,hsmPaVMi,2020-0188,2020-11-17,19:47:51,20:08:51,NA,incomplete,238,race,3,0,left,A_F_15.jpg,A_M_11.jpg,C_F_03.jpg,left,825.0650000409223,true,low,NA,NA,NA,NA,NA,NA,NA,false
hsmPaVMi,3t5zxgo9eh1fn0t8t5nft3pt661qzj,3z7ishfuh48b4gr6ydbhww0lp4jz8x,hsmPaVMi,2020-0188,2020-11-17,19:47:51,20:08:51,NA,incomplete,239,race,3,1,left,A_F_12.jpg,A_M_15.jpg,C_F_06.jpg,left,886.9649999542162,true,low,NA,NA,NA,NA,NA,NA,NA,false
hsmPaVMi,3t5zxgo9eh1fn0t8t5nft3pt661qzj,3z7ishfuh48b4gr6ydbhww0lp4jz8x,hsmPaVMi,2020-0188,2020-11-17,19:47:51,20:08:51,NA,NA,instruction example,color,NA,NA,NA,Green_Star_Dots_3.jpg,Green_Circle_Stripes_2.jpg,Purple_Plus_Dots_4.jpg,NA,NA,NA,NA,NA,NA,NA,NA,NA,NA,NA,undefined
hsmPaVMi,3t5zxgo9eh1fn0t8t5nft3pt661qzj,3z7ishfuh48b4gr6ydbhww0lp4jz8x,hsmPaVMi,2020-0188,2020-11-17,19:47:51,20:08:51,NA,NA,instruction example,color,NA,NA,NA,Green_Plus_Chess_2.jpg,Blue_Triangle_Chess_3.jpg,Green_Star_Dots_4.jpg,NA,NA,NA,NA,NA,NA,NA,NA,NA,NA,NA,undefined
hsmPaVMi,3t5zxgo9eh1fn0t8t5nft3pt661qzj,3z7ishfuh48b4gr6ydbhww0lp4jz8x,hsmPaVMi,2020-0188,2020-11-17,19:47:51,20:08:51,NA,NA,instruction example,color,NA,NA,NA,A_M_12.jpg,C_M_13.jpg,A_F_16.jpg,NA,NA,NA,NA,NA,NA,NA,NA,NA,NA,NA,undefined
hsmPaVMi,3t5zxgo9eh1fn0t8t5nft3pt661qzj,3z7ishfuh48b4gr6ydbhww0lp4jz8x,hsmPaVMi,2020-0188,2020-11-17,19:47:51,20:08:51,NA,NA,instruction example,color,NA,NA,NA,A_F_04.jpg,A_M_03.jpg,C_F_11.jpg,NA,NA,NA,NA,NA,NA,NA,NA,NA,NA,NA,undefined
hsmPaVMi,3t5zxgo9eh1fn0t8t5nft3pt661qzj,3z7ishfuh48b4gr6ydbhww0lp4jz8x,hsmPaVMi,2020-0188,2020-11-17,19:47:51,20:08:51,1221003.6749999854,1261150.6049999734,NA,NA,NA,NA,NA,NA,NA,NA,NA,NA,NA,NA,33,Other,Male,Hispanic,no,no,no,undefined
