workerId,hitId,assignmentId,subject,studyid,exp_date,exp_start,exp_end,time_start,time_end,trial,type,sequence,reward_validity,answer,image_top,image_left,image_right,response,response_time,response_acc,volatility,practice
Zmf4DgmI,3oplmf3ev80afezcyc4phujqmmslnu,3zwfc4w1uykbh4f2wanaklf83kmfrw,Zmf4DgmI,2020-0188,2020-11-16,18:59:35,19:18:18,NA,incomplete,0,color,0,1,left,Purple_Star_Dots_1.jpg,Purple_Triangle_Stripes_2.jpg,Blue_Star_Chess_3.jpg,none,0,false,NA,true
Zmf4DgmI,3oplmf3ev80afezcyc4phujqmmslnu,3zwfc4w1uykbh4f2wanaklf83kmfrw,Zmf4DgmI,2020-0188,2020-11-16,18:59:35,19:18:18,NA,incomplete,1,color,0,1,right,Blue_Star_Chess_3.jpg,Purple_Star_Stripes_4.jpg,Blue_Circle_Grid_2.jpg,right,1206,true,NA,true
Zmf4DgmI,3oplmf3ev80afezcyc4phujqmmslnu,3zwfc4w1uykbh4f2wanaklf83kmfrw,Zmf4DgmI,2020-0188,2020-11-16,18:59:35,19:18:18,NA,incomplete,2,color,0,1,left,Red_Star_Dots_2.jpg,Red_Circle_Stripes_1.jpg,Blue_Star_Chess_3.jpg,left,1035,true,NA,true
Zmf4DgmI,3oplmf3ev80afezcyc4phujqmmslnu,3zwfc4w1uykbh4f2wanaklf83kmfrw,Zmf4DgmI,2020-0188,2020-11-16,18:59:35,19:18:18,NA,incomplete,3,color,0,1,right,Purple_Star_Grid_2.jpg,Green_Star_Chess_1.jpg,Purple_Triangle_Dots_3.jpg,right,839,true,NA,true
Zmf4DgmI,3oplmf3ev80afezcyc4phujqmmslnu,3zwfc4w1uykbh4f2wanaklf83kmfrw,Zmf4DgmI,2020-0188,2020-11-16,18:59:35,19:18:18,NA,incomplete,4,color,0,0,right,Purple_Triangle_Chess_3.jpg,Blue_Triangle_Dots_4.jpg,Purple_Plus_Grid_1.jpg,right,1160,true,NA,true
Zmf4DgmI,3oplmf3ev80afezcyc4phujqmmslnu,3zwfc4w1uykbh4f2wanaklf83kmfrw,Zmf4DgmI,2020-0188,2020-11-16,18:59:35,19:18:18,NA,incomplete,5,color,0,1,left,Purple_Star_Stripes_4.jpg,Purple_Plus_Chess_3.jpg,Green_Star_Dots_1.jpg,left,1006,true,NA,true
Zmf4DgmI,3oplmf3ev80afezcyc4phujqmmslnu,3zwfc4w1uykbh4f2wanaklf83kmfrw,Zmf4DgmI,2020-0188,2020-11-16,18:59:35,19:18:18,NA,incomplete,6,color,0,1,right,Blue_Plus_Chess_3.jpg,Red_Plus_Stripes_4.jpg,Blue_Circle_Dots_1.jpg,right,891,true,NA,true
Zmf4DgmI,3oplmf3ev80afezcyc4phujqmmslnu,3zwfc4w1uykbh4f2wanaklf83kmfrw,Zmf4DgmI,2020-0188,2020-11-16,18:59:35,19:18:18,NA,incomplete,7,color,0,1,right,Green_Triangle_Chess_2.jpg,Blue_Triangle_Stripes_1.jpg,Green_Star_Dots_3.jpg,right,684,true,NA,true
Zmf4DgmI,3oplmf3ev80afezcyc4phujqmmslnu,3zwfc4w1uykbh4f2wanaklf83kmfrw,Zmf4DgmI,2020-0188,2020-11-16,18:59:35,19:18:18,NA,incomplete,8,color,0,1,left,Blue_Plus_Stripes_1.jpg,Blue_Star_Dots_2.jpg,Purple_Plus_Grid_4.jpg,left,757,true,NA,true
Zmf4DgmI,3oplmf3ev80afezcyc4phujqmmslnu,3zwfc4w1uykbh4f2wanaklf83kmfrw,Zmf4DgmI,2020-0188,2020-11-16,18:59:35,19:18:18,NA,incomplete,9,color,0,1,left,Purple_Star_Chess_2.jpg,Purple_Circle_Grid_1.jpg,Red_Star_Stripes_3.jpg,left,844,true,NA,true
Zmf4DgmI,3oplmf3ev80afezcyc4phujqmmslnu,3zwfc4w1uykbh4f2wanaklf83kmfrw,Zmf4DgmI,2020-0188,2020-11-16,18:59:35,19:18:18,NA,incomplete,10,color,0,1,right,Purple_Circle_Stripes_3.jpg,Green_Circle_Dots_1.jpg,Purple_Plus_Chess_2.jpg,right,685,true,NA,true
Zmf4DgmI,3oplmf3ev80afezcyc4phujqmmslnu,3zwfc4w1uykbh4f2wanaklf83kmfrw,Zmf4DgmI,2020-0188,2020-11-16,18:59:35,19:18:18,NA,incomplete,11,color,0,0,right,Red_Plus_Dots_3.jpg,Blue_Plus_Chess_4.jpg,Red_Star_Grid_2.jpg,right,679,true,NA,true
Zmf4DgmI,3oplmf3ev80afezcyc4phujqmmslnu,3zwfc4w1uykbh4f2wanaklf83kmfrw,Zmf4DgmI,2020-0188,2020-11-16,18:59:35,19:18:18,NA,incomplete,12,color,0,0,left,Green_Circle_Stripes_3.jpg,Green_Plus_Chess_4.jpg,Purple_Circle_Dots_1.jpg,left,928,true,NA,true
Zmf4DgmI,3oplmf3ev80afezcyc4phujqmmslnu,3zwfc4w1uykbh4f2wanaklf83kmfrw,Zmf4DgmI,2020-0188,2020-11-16,18:59:35,19:18:18,NA,incomplete,13,color,0,1,right,Green_Circle_Stripes_3.jpg,Blue_Circle_Dots_1.jpg,Green_Triangle_Grid_4.jpg,right,943,true,NA,true
Zmf4DgmI,3oplmf3ev80afezcyc4phujqmmslnu,3zwfc4w1uykbh4f2wanaklf83kmfrw,Zmf4DgmI,2020-0188,2020-11-16,18:59:35,19:18:18,NA,incomplete,14,color,0,0,left,Blue_Circle_Grid_3.jpg,Blue_Star_Stripes_2.jpg,Green_Circle_Dots_1.jpg,left,830,true,NA,true
Zmf4DgmI,3oplmf3ev80afezcyc4phujqmmslnu,3zwfc4w1uykbh4f2wanaklf83kmfrw,Zmf4DgmI,2020-0188,2020-11-16,18:59:35,19:18:18,NA,incomplete,15,color,0,1,right,Green_Star_Dots_1.jpg,Blue_Star_Chess_4.jpg,Green_Triangle_Grid_2.jpg,right,1089,true,NA,true
Zmf4DgmI,3oplmf3ev80afezcyc4phujqmmslnu,3zwfc4w1uykbh4f2wanaklf83kmfrw,Zmf4DgmI,2020-0188,2020-11-16,18:59:35,19:18:18,NA,incomplete,16,color,0,1,right,Blue_Circle_Grid_3.jpg,Green_Circle_Chess_1.jpg,Blue_Plus_Stripes_4.jpg,right,747,true,NA,true
Zmf4DgmI,3oplmf3ev80afezcyc4phujqmmslnu,3zwfc4w1uykbh4f2wanaklf83kmfrw,Zmf4DgmI,2020-0188,2020-11-16,18:59:35,19:18:18,NA,incomplete,17,color,0,1,right,Red_Star_Stripes_1.jpg,Blue_Star_Dots_4.jpg,Red_Circle_Grid_3.jpg,right,834,true,NA,true
Zmf4DgmI,3oplmf3ev80afezcyc4phujqmmslnu,3zwfc4w1uykbh4f2wanaklf83kmfrw,Zmf4DgmI,2020-0188,2020-11-16,18:59:35,19:18:18,NA,incomplete,18,color,0,0,right,Blue_Circle_Dots_3.jpg,Red_Circle_Chess_1.jpg,Blue_Triangle_Stripes_4.jpg,right,708,true,NA,true
Zmf4DgmI,3oplmf3ev80afezcyc4phujqmmslnu,3zwfc4w1uykbh4f2wanaklf83kmfrw,Zmf4DgmI,2020-0188,2020-11-16,18:59:35,19:18:18,NA,incomplete,19,color,0,1,right,Purple_Triangle_Chess_2.jpg,Red_Triangle_Grid_1.jpg,Purple_Plus_Stripes_3.jpg,right,1021,true,NA,true
Zmf4DgmI,3oplmf3ev80afezcyc4phujqmmslnu,3zwfc4w1uykbh4f2wanaklf83kmfrw,Zmf4DgmI,2020-0188,2020-11-16,18:59:35,19:18:18,NA,incomplete,20,shape,1,1,right,Green_Plus_Chess_3.jpg,Green_Star_Dots_1.jpg,Blue_Plus_Grid_2.jpg,right,1145,true,NA,true
Zmf4DgmI,3oplmf3ev80afezcyc4phujqmmslnu,3zwfc4w1uykbh4f2wanaklf83kmfrw,Zmf4DgmI,2020-0188,2020-11-16,18:59:35,19:18:18,NA,incomplete,21,shape,1,1,right,Green_Plus_Grid_1.jpg,Green_Circle_Stripes_3.jpg,Blue_Plus_Dots_2.jpg,right,991,true,NA,true
Zmf4DgmI,3oplmf3ev80afezcyc4phujqmmslnu,3zwfc4w1uykbh4f2wanaklf83kmfrw,Zmf4DgmI,2020-0188,2020-11-16,18:59:35,19:18:18,NA,incomplete,22,shape,1,1,left,Blue_Circle_Stripes_4.jpg,Green_Circle_Grid_3.jpg,Blue_Plus_Chess_2.jpg,left,972,true,NA,true
Zmf4DgmI,3oplmf3ev80afezcyc4phujqmmslnu,3zwfc4w1uykbh4f2wanaklf83kmfrw,Zmf4DgmI,2020-0188,2020-11-16,18:59:35,19:18:18,NA,incomplete,23,shape,1,1,left,Blue_Circle_Grid_2.jpg,Green_Circle_Stripes_4.jpg,Blue_Triangle_Chess_1.jpg,left,1257,true,NA,true
Zmf4DgmI,3oplmf3ev80afezcyc4phujqmmslnu,3zwfc4w1uykbh4f2wanaklf83kmfrw,Zmf4DgmI,2020-0188,2020-11-16,18:59:35,19:18:18,NA,incomplete,24,shape,1,1,right,Purple_Plus_Grid_2.jpg,Purple_Triangle_Chess_1.jpg,Green_Plus_Dots_3.jpg,right,988,true,NA,true
Zmf4DgmI,3oplmf3ev80afezcyc4phujqmmslnu,3zwfc4w1uykbh4f2wanaklf83kmfrw,Zmf4DgmI,2020-0188,2020-11-16,18:59:35,19:18:18,NA,incomplete,25,shape,1,1,left,Green_Circle_Chess_2.jpg,Red_Circle_Grid_1.jpg,Green_Triangle_Dots_4.jpg,left,888,true,NA,true
Zmf4DgmI,3oplmf3ev80afezcyc4phujqmmslnu,3zwfc4w1uykbh4f2wanaklf83kmfrw,Zmf4DgmI,2020-0188,2020-11-16,18:59:35,19:18:18,NA,incomplete,26,shape,1,0,left,Red_Plus_Chess_1.jpg,Blue_Plus_Stripes_2.jpg,Red_Circle_Dots_3.jpg,left,921,true,NA,true
Zmf4DgmI,3oplmf3ev80afezcyc4phujqmmslnu,3zwfc4w1uykbh4f2wanaklf83kmfrw,Zmf4DgmI,2020-0188,2020-11-16,18:59:35,19:18:18,NA,incomplete,27,shape,1,1,left,Red_Circle_Grid_4.jpg,Purple_Circle_Chess_3.jpg,Red_Triangle_Dots_2.jpg,left,1033,true,NA,true
Zmf4DgmI,3oplmf3ev80afezcyc4phujqmmslnu,3zwfc4w1uykbh4f2wanaklf83kmfrw,Zmf4DgmI,2020-0188,2020-11-16,18:59:35,19:18:18,NA,incomplete,28,shape,1,1,left,Red_Circle_Stripes_1.jpg,Purple_Circle_Grid_2.jpg,Red_Star_Chess_4.jpg,left,900,true,NA,true
Zmf4DgmI,3oplmf3ev80afezcyc4phujqmmslnu,3zwfc4w1uykbh4f2wanaklf83kmfrw,Zmf4DgmI,2020-0188,2020-11-16,18:59:35,19:18:18,NA,incomplete,29,shape,1,1,right,Purple_Circle_Grid_2.jpg,Purple_Triangle_Stripes_1.jpg,Green_Circle_Chess_4.jpg,right,806,true,NA,true
Zmf4DgmI,3oplmf3ev80afezcyc4phujqmmslnu,3zwfc4w1uykbh4f2wanaklf83kmfrw,Zmf4DgmI,2020-0188,2020-11-16,18:59:35,19:18:18,NA,incomplete,30,shape,1,1,right,Blue_Star_Dots_3.jpg,Blue_Triangle_Chess_4.jpg,Purple_Star_Stripes_1.jpg,right,952,true,NA,true
Zmf4DgmI,3oplmf3ev80afezcyc4phujqmmslnu,3zwfc4w1uykbh4f2wanaklf83kmfrw,Zmf4DgmI,2020-0188,2020-11-16,18:59:35,19:18:18,NA,incomplete,31,shape,1,1,left,Purple_Triangle_Chess_2.jpg,Red_Triangle_Stripes_4.jpg,Purple_Star_Dots_1.jpg,left,726,true,NA,true
Zmf4DgmI,3oplmf3ev80afezcyc4phujqmmslnu,3zwfc4w1uykbh4f2wanaklf83kmfrw,Zmf4DgmI,2020-0188,2020-11-16,18:59:35,19:18:18,NA,incomplete,32,shape,1,0,right,Green_Star_Grid_2.jpg,Green_Triangle_Dots_1.jpg,Blue_Star_Stripes_4.jpg,right,1054,true,NA,true
Zmf4DgmI,3oplmf3ev80afezcyc4phujqmmslnu,3zwfc4w1uykbh4f2wanaklf83kmfrw,Zmf4DgmI,2020-0188,2020-11-16,18:59:35,19:18:18,NA,incomplete,33,shape,1,1,left,Red_Triangle_Dots_4.jpg,Green_Triangle_Chess_3.jpg,Red_Star_Grid_2.jpg,left,1049,true,NA,true
Zmf4DgmI,3oplmf3ev80afezcyc4phujqmmslnu,3zwfc4w1uykbh4f2wanaklf83kmfrw,Zmf4DgmI,2020-0188,2020-11-16,18:59:35,19:18:18,NA,incomplete,34,shape,1,1,right,Blue_Star_Grid_4.jpg,Blue_Triangle_Stripes_2.jpg,Green_Star_Dots_1.jpg,right,835,true,NA,true
Zmf4DgmI,3oplmf3ev80afezcyc4phujqmmslnu,3zwfc4w1uykbh4f2wanaklf83kmfrw,Zmf4DgmI,2020-0188,2020-11-16,18:59:35,19:18:18,NA,incomplete,35,shape,1,1,left,Green_Plus_Chess_1.jpg,Red_Plus_Grid_3.jpg,Green_Triangle_Stripes_4.jpg,left,806,true,NA,true
Zmf4DgmI,3oplmf3ev80afezcyc4phujqmmslnu,3zwfc4w1uykbh4f2wanaklf83kmfrw,Zmf4DgmI,2020-0188,2020-11-16,18:59:35,19:18:18,NA,incomplete,36,shape,1,1,left,Blue_Circle_Grid_2.jpg,Red_Circle_Chess_3.jpg,Blue_Plus_Stripes_1.jpg,left,730,true,NA,true
Zmf4DgmI,3oplmf3ev80afezcyc4phujqmmslnu,3zwfc4w1uykbh4f2wanaklf83kmfrw,Zmf4DgmI,2020-0188,2020-11-16,18:59:35,19:18:18,NA,incomplete,37,shape,1,0,left,Purple_Plus_Grid_3.jpg,Green_Plus_Stripes_1.jpg,Purple_Triangle_Dots_2.jpg,left,802,true,NA,true
Zmf4DgmI,3oplmf3ev80afezcyc4phujqmmslnu,3zwfc4w1uykbh4f2wanaklf83kmfrw,Zmf4DgmI,2020-0188,2020-11-16,18:59:35,19:18:18,NA,incomplete,38,shape,1,1,left,Purple_Triangle_Chess_3.jpg,Blue_Triangle_Dots_2.jpg,Purple_Plus_Stripes_4.jpg,left,854,true,NA,true
Zmf4DgmI,3oplmf3ev80afezcyc4phujqmmslnu,3zwfc4w1uykbh4f2wanaklf83kmfrw,Zmf4DgmI,2020-0188,2020-11-16,18:59:35,19:18:18,NA,incomplete,39,shape,1,1,right,Blue_Star_Chess_2.jpg,Blue_Plus_Dots_4.jpg,Green_Star_Stripes_1.jpg,left,808,false,NA,true
Zmf4DgmI,3oplmf3ev80afezcyc4phujqmmslnu,3zwfc4w1uykbh4f2wanaklf83kmfrw,Zmf4DgmI,2020-0188,2020-11-16,18:59:35,19:18:18,NA,incomplete,0,color,0,1,left,Red_Star_Chess_3.jpg,Red_Triangle_Grid_4.jpg,Purple_Star_Stripes_2.jpg,right,1214,false,high,false
Zmf4DgmI,3oplmf3ev80afezcyc4phujqmmslnu,3zwfc4w1uykbh4f2wanaklf83kmfrw,Zmf4DgmI,2020-0188,2020-11-16,18:59:35,19:18:18,NA,incomplete,1,color,0,1,left,Red_Circle_Stripes_1.jpg,Red_Star_Dots_2.jpg,Blue_Circle_Chess_4.jpg,right,979,false,high,false
Zmf4DgmI,3oplmf3ev80afezcyc4phujqmmslnu,3zwfc4w1uykbh4f2wanaklf83kmfrw,Zmf4DgmI,2020-0188,2020-11-16,18:59:35,19:18:18,NA,incomplete,2,color,0,1,left,Green_Plus_Stripes_3.jpg,Green_Circle_Grid_2.jpg,Purple_Plus_Dots_1.jpg,left,704,true,high,false
Zmf4DgmI,3oplmf3ev80afezcyc4phujqmmslnu,3zwfc4w1uykbh4f2wanaklf83kmfrw,Zmf4DgmI,2020-0188,2020-11-16,18:59:35,19:18:18,NA,incomplete,3,color,0,1,left,Purple_Triangle_Dots_4.jpg,Purple_Plus_Grid_1.jpg,Green_Triangle_Chess_2.jpg,left,824,true,high,false
Zmf4DgmI,3oplmf3ev80afezcyc4phujqmmslnu,3zwfc4w1uykbh4f2wanaklf83kmfrw,Zmf4DgmI,2020-0188,2020-11-16,18:59:35,19:18:18,NA,incomplete,4,color,0,1,right,Green_Star_Chess_4.jpg,Red_Star_Dots_1.jpg,Green_Plus_Grid_3.jpg,right,763,true,high,false
Zmf4DgmI,3oplmf3ev80afezcyc4phujqmmslnu,3zwfc4w1uykbh4f2wanaklf83kmfrw,Zmf4DgmI,2020-0188,2020-11-16,18:59:35,19:18:18,NA,incomplete,5,color,0,0,right,Purple_Plus_Dots_4.jpg,Red_Plus_Stripes_3.jpg,Purple_Star_Grid_1.jpg,right,1089,true,high,false
Zmf4DgmI,3oplmf3ev80afezcyc4phujqmmslnu,3zwfc4w1uykbh4f2wanaklf83kmfrw,Zmf4DgmI,2020-0188,2020-11-16,18:59:35,19:18:18,NA,incomplete,6,color,0,1,left,Green_Circle_Chess_1.jpg,Green_Plus_Dots_2.jpg,Purple_Circle_Grid_4.jpg,left,778,true,high,false
Zmf4DgmI,3oplmf3ev80afezcyc4phujqmmslnu,3zwfc4w1uykbh4f2wanaklf83kmfrw,Zmf4DgmI,2020-0188,2020-11-16,18:59:35,19:18:18,NA,incomplete,7,color,0,1,left,Green_Star_Stripes_3.jpg,Green_Circle_Grid_2.jpg,Red_Star_Chess_1.jpg,left,688,true,high,false
Zmf4DgmI,3oplmf3ev80afezcyc4phujqmmslnu,3zwfc4w1uykbh4f2wanaklf83kmfrw,Zmf4DgmI,2020-0188,2020-11-16,18:59:35,19:18:18,NA,incomplete,8,color,0,1,right,Red_Plus_Dots_1.jpg,Green_Plus_Grid_4.jpg,Red_Circle_Chess_3.jpg,right,952,true,high,false
Zmf4DgmI,3oplmf3ev80afezcyc4phujqmmslnu,3zwfc4w1uykbh4f2wanaklf83kmfrw,Zmf4DgmI,2020-0188,2020-11-16,18:59:35,19:18:18,NA,incomplete,9,color,0,1,right,Green_Star_Stripes_4.jpg,Red_Star_Dots_1.jpg,Green_Triangle_Grid_2.jpg,right,727,true,high,false
Zmf4DgmI,3oplmf3ev80afezcyc4phujqmmslnu,3zwfc4w1uykbh4f2wanaklf83kmfrw,Zmf4DgmI,2020-0188,2020-11-16,18:59:35,19:18:18,NA,incomplete,10,shape,1,1,right,Red_Plus_Stripes_3.jpg,Red_Circle_Grid_4.jpg,Purple_Plus_Chess_2.jpg,left,766,false,high,false
Zmf4DgmI,3oplmf3ev80afezcyc4phujqmmslnu,3zwfc4w1uykbh4f2wanaklf83kmfrw,Zmf4DgmI,2020-0188,2020-11-16,18:59:35,19:18:18,NA,incomplete,11,shape,1,1,right,Purple_Circle_Chess_2.jpg,Purple_Plus_Stripes_4.jpg,Blue_Circle_Dots_1.jpg,left,901,false,high,false
Zmf4DgmI,3oplmf3ev80afezcyc4phujqmmslnu,3zwfc4w1uykbh4f2wanaklf83kmfrw,Zmf4DgmI,2020-0188,2020-11-16,18:59:35,19:18:18,NA,incomplete,12,shape,1,1,right,Purple_Plus_Grid_3.jpg,Purple_Triangle_Chess_4.jpg,Blue_Plus_Dots_1.jpg,right,902,true,high,false
Zmf4DgmI,3oplmf3ev80afezcyc4phujqmmslnu,3zwfc4w1uykbh4f2wanaklf83kmfrw,Zmf4DgmI,2020-0188,2020-11-16,18:59:35,19:18:18,NA,incomplete,13,shape,1,1,right,Green_Plus_Chess_2.jpg,Green_Star_Dots_1.jpg,Red_Plus_Grid_3.jpg,right,949,true,high,false
Zmf4DgmI,3oplmf3ev80afezcyc4phujqmmslnu,3zwfc4w1uykbh4f2wanaklf83kmfrw,Zmf4DgmI,2020-0188,2020-11-16,18:59:35,19:18:18,NA,incomplete,14,shape,1,1,left,Purple_Star_Dots_3.jpg,Green_Star_Chess_1.jpg,Purple_Circle_Stripes_2.jpg,left,788,true,high,false
Zmf4DgmI,3oplmf3ev80afezcyc4phujqmmslnu,3zwfc4w1uykbh4f2wanaklf83kmfrw,Zmf4DgmI,2020-0188,2020-11-16,18:59:35,19:18:18,NA,incomplete,15,shape,1,1,left,Red_Circle_Grid_4.jpg,Blue_Circle_Stripes_3.jpg,Red_Plus_Dots_1.jpg,right,777,false,high,false
Zmf4DgmI,3oplmf3ev80afezcyc4phujqmmslnu,3zwfc4w1uykbh4f2wanaklf83kmfrw,Zmf4DgmI,2020-0188,2020-11-16,18:59:35,19:18:18,NA,incomplete,16,shape,1,0,right,Green_Circle_Chess_3.jpg,Green_Triangle_Stripes_1.jpg,Purple_Circle_Dots_2.jpg,right,846,true,high,false
Zmf4DgmI,3oplmf3ev80afezcyc4phujqmmslnu,3zwfc4w1uykbh4f2wanaklf83kmfrw,Zmf4DgmI,2020-0188,2020-11-16,18:59:35,19:18:18,NA,incomplete,17,shape,1,0,right,Blue_Triangle_Dots_4.jpg,Blue_Circle_Stripes_3.jpg,Green_Triangle_Grid_1.jpg,left,754,false,high,false
Zmf4DgmI,3oplmf3ev80afezcyc4phujqmmslnu,3zwfc4w1uykbh4f2wanaklf83kmfrw,Zmf4DgmI,2020-0188,2020-11-16,18:59:35,19:18:18,NA,incomplete,18,shape,1,1,left,Red_Plus_Grid_2.jpg,Blue_Plus_Dots_1.jpg,Red_Circle_Chess_4.jpg,right,840,false,high,false
Zmf4DgmI,3oplmf3ev80afezcyc4phujqmmslnu,3zwfc4w1uykbh4f2wanaklf83kmfrw,Zmf4DgmI,2020-0188,2020-11-16,18:59:35,19:18:18,NA,incomplete,19,shape,1,0,right,Red_Circle_Chess_2.jpg,Red_Star_Stripes_1.jpg,Green_Circle_Dots_3.jpg,right,778,true,high,false
Zmf4DgmI,3oplmf3ev80afezcyc4phujqmmslnu,3zwfc4w1uykbh4f2wanaklf83kmfrw,Zmf4DgmI,2020-0188,2020-11-16,18:59:35,19:18:18,NA,incomplete,20,color,0,1,right,Green_Triangle_Grid_4.jpg,Red_Triangle_Chess_2.jpg,Green_Circle_Stripes_3.jpg,right,703,true,high,false
Zmf4DgmI,3oplmf3ev80afezcyc4phujqmmslnu,3zwfc4w1uykbh4f2wanaklf83kmfrw,Zmf4DgmI,2020-0188,2020-11-16,18:59:35,19:18:18,NA,incomplete,21,color,0,1,right,Purple_Circle_Grid_2.jpg,Green_Circle_Dots_3.jpg,Purple_Plus_Chess_1.jpg,right,807,true,high,false
Zmf4DgmI,3oplmf3ev80afezcyc4phujqmmslnu,3zwfc4w1uykbh4f2wanaklf83kmfrw,Zmf4DgmI,2020-0188,2020-11-16,18:59:35,19:18:18,NA,incomplete,22,color,0,1,right,Blue_Plus_Chess_3.jpg,Purple_Plus_Stripes_2.jpg,Blue_Triangle_Dots_4.jpg,right,635,true,high,false
Zmf4DgmI,3oplmf3ev80afezcyc4phujqmmslnu,3zwfc4w1uykbh4f2wanaklf83kmfrw,Zmf4DgmI,2020-0188,2020-11-16,18:59:35,19:18:18,NA,incomplete,23,color,0,1,left,Blue_Star_Grid_4.jpg,Blue_Triangle_Dots_2.jpg,Purple_Star_Stripes_1.jpg,left,742,true,high,false
Zmf4DgmI,3oplmf3ev80afezcyc4phujqmmslnu,3zwfc4w1uykbh4f2wanaklf83kmfrw,Zmf4DgmI,2020-0188,2020-11-16,18:59:35,19:18:18,NA,incomplete,24,color,0,1,right,Green_Plus_Stripes_1.jpg,Purple_Plus_Grid_2.jpg,Green_Triangle_Chess_4.jpg,right,637,true,high,false
Zmf4DgmI,3oplmf3ev80afezcyc4phujqmmslnu,3zwfc4w1uykbh4f2wanaklf83kmfrw,Zmf4DgmI,2020-0188,2020-11-16,18:59:35,19:18:18,NA,incomplete,25,color,0,1,left,Purple_Plus_Chess_2.jpg,Purple_Circle_Dots_4.jpg,Blue_Plus_Stripes_1.jpg,left,824,true,high,false
Zmf4DgmI,3oplmf3ev80afezcyc4phujqmmslnu,3zwfc4w1uykbh4f2wanaklf83kmfrw,Zmf4DgmI,2020-0188,2020-11-16,18:59:35,19:18:18,NA,incomplete,26,color,0,1,right,Blue_Triangle_Chess_3.jpg,Purple_Triangle_Stripes_1.jpg,Blue_Circle_Dots_2.jpg,right,715,true,high,false
Zmf4DgmI,3oplmf3ev80afezcyc4phujqmmslnu,3zwfc4w1uykbh4f2wanaklf83kmfrw,Zmf4DgmI,2020-0188,2020-11-16,18:59:35,19:18:18,NA,incomplete,27,color,0,0,right,Green_Circle_Grid_2.jpg,Blue_Circle_Chess_4.jpg,Green_Triangle_Dots_1.jpg,right,819,true,high,false
Zmf4DgmI,3oplmf3ev80afezcyc4phujqmmslnu,3zwfc4w1uykbh4f2wanaklf83kmfrw,Zmf4DgmI,2020-0188,2020-11-16,18:59:35,19:18:18,NA,incomplete,28,color,0,1,left,Purple_Plus_Chess_2.jpg,Purple_Circle_Stripes_4.jpg,Green_Plus_Dots_1.jpg,left,775,true,high,false
Zmf4DgmI,3oplmf3ev80afezcyc4phujqmmslnu,3zwfc4w1uykbh4f2wanaklf83kmfrw,Zmf4DgmI,2020-0188,2020-11-16,18:59:35,19:18:18,NA,incomplete,29,color,0,1,left,Green_Star_Dots_2.jpg,Green_Triangle_Stripes_1.jpg,Red_Star_Grid_4.jpg,left,780,true,high,false
Zmf4DgmI,3oplmf3ev80afezcyc4phujqmmslnu,3zwfc4w1uykbh4f2wanaklf83kmfrw,Zmf4DgmI,2020-0188,2020-11-16,18:59:35,19:18:18,NA,incomplete,30,shape,1,1,right,Red_Circle_Grid_3.jpg,Red_Triangle_Chess_4.jpg,Purple_Circle_Stripes_1.jpg,left,674,false,high,false
Zmf4DgmI,3oplmf3ev80afezcyc4phujqmmslnu,3zwfc4w1uykbh4f2wanaklf83kmfrw,Zmf4DgmI,2020-0188,2020-11-16,18:59:35,19:18:18,NA,incomplete,31,shape,1,0,right,Purple_Circle_Stripes_4.jpg,Purple_Triangle_Dots_2.jpg,Red_Circle_Grid_1.jpg,right,923,true,high,false
Zmf4DgmI,3oplmf3ev80afezcyc4phujqmmslnu,3zwfc4w1uykbh4f2wanaklf83kmfrw,Zmf4DgmI,2020-0188,2020-11-16,18:59:35,19:18:18,NA,incomplete,32,shape,1,0,left,Blue_Plus_Grid_2.jpg,Green_Plus_Dots_3.jpg,Blue_Triangle_Stripes_4.jpg,right,747,false,high,false
Zmf4DgmI,3oplmf3ev80afezcyc4phujqmmslnu,3zwfc4w1uykbh4f2wanaklf83kmfrw,Zmf4DgmI,2020-0188,2020-11-16,18:59:35,19:18:18,NA,incomplete,33,shape,1,0,right,Purple_Plus_Stripes_2.jpg,Purple_Star_Dots_3.jpg,Green_Plus_Grid_1.jpg,left,834,false,high,false
Zmf4DgmI,3oplmf3ev80afezcyc4phujqmmslnu,3zwfc4w1uykbh4f2wanaklf83kmfrw,Zmf4DgmI,2020-0188,2020-11-16,18:59:35,19:18:18,NA,incomplete,34,shape,1,1,left,Blue_Star_Chess_3.jpg,Purple_Star_Stripes_1.jpg,Blue_Plus_Dots_2.jpg,right,676,false,high,false
Zmf4DgmI,3oplmf3ev80afezcyc4phujqmmslnu,3zwfc4w1uykbh4f2wanaklf83kmfrw,Zmf4DgmI,2020-0188,2020-11-16,18:59:35,19:18:18,NA,incomplete,35,shape,1,0,right,Red_Triangle_Dots_2.jpg,Red_Star_Grid_3.jpg,Green_Triangle_Chess_4.jpg,left,845,false,high,false
Zmf4DgmI,3oplmf3ev80afezcyc4phujqmmslnu,3zwfc4w1uykbh4f2wanaklf83kmfrw,Zmf4DgmI,2020-0188,2020-11-16,18:59:35,19:18:18,NA,incomplete,36,shape,1,1,right,Red_Plus_Chess_3.jpg,Red_Circle_Stripes_1.jpg,Purple_Plus_Grid_4.jpg,left,641,false,high,false
Zmf4DgmI,3oplmf3ev80afezcyc4phujqmmslnu,3zwfc4w1uykbh4f2wanaklf83kmfrw,Zmf4DgmI,2020-0188,2020-11-16,18:59:35,19:18:18,NA,incomplete,37,shape,1,1,left,Green_Circle_Dots_3.jpg,Purple_Circle_Grid_2.jpg,Green_Plus_Stripes_1.jpg,right,747,false,high,false
Zmf4DgmI,3oplmf3ev80afezcyc4phujqmmslnu,3zwfc4w1uykbh4f2wanaklf83kmfrw,Zmf4DgmI,2020-0188,2020-11-16,18:59:35,19:18:18,NA,incomplete,38,shape,1,1,left,Blue_Triangle_Chess_1.jpg,Red_Triangle_Dots_3.jpg,Blue_Star_Stripes_2.jpg,left,834,true,high,false
Zmf4DgmI,3oplmf3ev80afezcyc4phujqmmslnu,3zwfc4w1uykbh4f2wanaklf83kmfrw,Zmf4DgmI,2020-0188,2020-11-16,18:59:35,19:18:18,NA,incomplete,39,shape,1,1,right,Blue_Circle_Dots_3.jpg,Blue_Plus_Grid_1.jpg,Green_Circle_Chess_2.jpg,right,805,true,high,false
Zmf4DgmI,3oplmf3ev80afezcyc4phujqmmslnu,3zwfc4w1uykbh4f2wanaklf83kmfrw,Zmf4DgmI,2020-0188,2020-11-16,18:59:35,19:18:18,NA,incomplete,40,color,0,1,left,Red_Plus_Dots_4.jpg,Red_Star_Stripes_3.jpg,Green_Plus_Grid_1.jpg,right,905,false,high,false
Zmf4DgmI,3oplmf3ev80afezcyc4phujqmmslnu,3zwfc4w1uykbh4f2wanaklf83kmfrw,Zmf4DgmI,2020-0188,2020-11-16,18:59:35,19:18:18,NA,incomplete,41,color,0,0,right,Blue_Triangle_Dots_2.jpg,Green_Triangle_Grid_3.jpg,Blue_Star_Chess_1.jpg,right,938,true,high,false
Zmf4DgmI,3oplmf3ev80afezcyc4phujqmmslnu,3zwfc4w1uykbh4f2wanaklf83kmfrw,Zmf4DgmI,2020-0188,2020-11-16,18:59:35,19:18:18,NA,incomplete,42,color,0,1,right,Red_Star_Dots_2.jpg,Green_Star_Stripes_1.jpg,Red_Circle_Grid_3.jpg,left,1000,false,high,false
Zmf4DgmI,3oplmf3ev80afezcyc4phujqmmslnu,3zwfc4w1uykbh4f2wanaklf83kmfrw,Zmf4DgmI,2020-0188,2020-11-16,18:59:35,19:18:18,NA,incomplete,43,color,0,1,left,Red_Triangle_Grid_3.jpg,Red_Plus_Stripes_4.jpg,Green_Triangle_Dots_1.jpg,left,1029,true,high,false
Zmf4DgmI,3oplmf3ev80afezcyc4phujqmmslnu,3zwfc4w1uykbh4f2wanaklf83kmfrw,Zmf4DgmI,2020-0188,2020-11-16,18:59:35,19:18:18,NA,incomplete,44,color,0,1,left,Blue_Plus_Stripes_3.jpg,Blue_Star_Grid_1.jpg,Red_Plus_Chess_4.jpg,left,976,true,high,false
Zmf4DgmI,3oplmf3ev80afezcyc4phujqmmslnu,3zwfc4w1uykbh4f2wanaklf83kmfrw,Zmf4DgmI,2020-0188,2020-11-16,18:59:35,19:18:18,NA,incomplete,45,color,0,1,right,Blue_Plus_Chess_1.jpg,Red_Plus_Stripes_4.jpg,Blue_Star_Dots_3.jpg,right,669,true,high,false
Zmf4DgmI,3oplmf3ev80afezcyc4phujqmmslnu,3zwfc4w1uykbh4f2wanaklf83kmfrw,Zmf4DgmI,2020-0188,2020-11-16,18:59:35,19:18:18,NA,incomplete,46,color,0,1,right,Blue_Plus_Grid_1.jpg,Purple_Plus_Chess_4.jpg,Blue_Star_Stripes_3.jpg,right,616,true,high,false
Zmf4DgmI,3oplmf3ev80afezcyc4phujqmmslnu,3zwfc4w1uykbh4f2wanaklf83kmfrw,Zmf4DgmI,2020-0188,2020-11-16,18:59:35,19:18:18,NA,incomplete,47,color,0,1,left,Green_Triangle_Grid_1.jpg,Green_Plus_Chess_2.jpg,Blue_Triangle_Dots_4.jpg,left,755,true,high,false
Zmf4DgmI,3oplmf3ev80afezcyc4phujqmmslnu,3zwfc4w1uykbh4f2wanaklf83kmfrw,Zmf4DgmI,2020-0188,2020-11-16,18:59:35,19:18:18,NA,incomplete,48,color,0,1,left,Red_Triangle_Dots_2.jpg,Red_Circle_Grid_4.jpg,Green_Triangle_Chess_3.jpg,left,762,true,high,false
Zmf4DgmI,3oplmf3ev80afezcyc4phujqmmslnu,3zwfc4w1uykbh4f2wanaklf83kmfrw,Zmf4DgmI,2020-0188,2020-11-16,18:59:35,19:18:18,NA,incomplete,49,color,0,1,left,Green_Triangle_Chess_4.jpg,Green_Circle_Stripes_1.jpg,Purple_Triangle_Dots_2.jpg,left,832,true,high,false
Zmf4DgmI,3oplmf3ev80afezcyc4phujqmmslnu,3zwfc4w1uykbh4f2wanaklf83kmfrw,Zmf4DgmI,2020-0188,2020-11-16,18:59:35,19:18:18,NA,incomplete,50,shape,1,1,left,Purple_Star_Stripes_4.jpg,Blue_Star_Grid_1.jpg,Purple_Triangle_Chess_3.jpg,right,594,false,high,false
Zmf4DgmI,3oplmf3ev80afezcyc4phujqmmslnu,3zwfc4w1uykbh4f2wanaklf83kmfrw,Zmf4DgmI,2020-0188,2020-11-16,18:59:35,19:18:18,NA,incomplete,51,shape,1,1,left,Red_Plus_Grid_1.jpg,Purple_Plus_Dots_2.jpg,Red_Circle_Stripes_3.jpg,left,865,true,high,false
Zmf4DgmI,3oplmf3ev80afezcyc4phujqmmslnu,3zwfc4w1uykbh4f2wanaklf83kmfrw,Zmf4DgmI,2020-0188,2020-11-16,18:59:35,19:18:18,NA,incomplete,52,shape,1,1,left,Blue_Plus_Stripes_1.jpg,Red_Plus_Dots_2.jpg,Blue_Triangle_Grid_4.jpg,left,785,true,high,false
Zmf4DgmI,3oplmf3ev80afezcyc4phujqmmslnu,3zwfc4w1uykbh4f2wanaklf83kmfrw,Zmf4DgmI,2020-0188,2020-11-16,18:59:35,19:18:18,NA,incomplete,53,shape,1,1,right,Purple_Plus_Dots_2.jpg,Purple_Star_Stripes_1.jpg,Green_Plus_Grid_4.jpg,right,838,true,high,false
Zmf4DgmI,3oplmf3ev80afezcyc4phujqmmslnu,3zwfc4w1uykbh4f2wanaklf83kmfrw,Zmf4DgmI,2020-0188,2020-11-16,18:59:35,19:18:18,NA,incomplete,54,shape,1,1,left,Purple_Circle_Chess_4.jpg,Red_Circle_Grid_1.jpg,Purple_Star_Stripes_2.jpg,left,810,true,high,false
Zmf4DgmI,3oplmf3ev80afezcyc4phujqmmslnu,3zwfc4w1uykbh4f2wanaklf83kmfrw,Zmf4DgmI,2020-0188,2020-11-16,18:59:35,19:18:18,NA,incomplete,55,shape,1,1,left,Blue_Triangle_Grid_2.jpg,Purple_Triangle_Dots_1.jpg,Blue_Circle_Stripes_4.jpg,left,765,true,high,false
Zmf4DgmI,3oplmf3ev80afezcyc4phujqmmslnu,3zwfc4w1uykbh4f2wanaklf83kmfrw,Zmf4DgmI,2020-0188,2020-11-16,18:59:35,19:18:18,NA,incomplete,56,shape,1,1,left,Purple_Star_Dots_3.jpg,Red_Star_Grid_2.jpg,Purple_Circle_Stripes_1.jpg,left,787,true,high,false
Zmf4DgmI,3oplmf3ev80afezcyc4phujqmmslnu,3zwfc4w1uykbh4f2wanaklf83kmfrw,Zmf4DgmI,2020-0188,2020-11-16,18:59:35,19:18:18,NA,incomplete,57,shape,1,1,left,Red_Plus_Stripes_3.jpg,Green_Plus_Chess_2.jpg,Red_Triangle_Dots_4.jpg,left,792,true,high,false
Zmf4DgmI,3oplmf3ev80afezcyc4phujqmmslnu,3zwfc4w1uykbh4f2wanaklf83kmfrw,Zmf4DgmI,2020-0188,2020-11-16,18:59:35,19:18:18,NA,incomplete,58,shape,1,1,left,Blue_Triangle_Chess_1.jpg,Purple_Triangle_Stripes_3.jpg,Blue_Star_Grid_4.jpg,left,1022,true,high,false
Zmf4DgmI,3oplmf3ev80afezcyc4phujqmmslnu,3zwfc4w1uykbh4f2wanaklf83kmfrw,Zmf4DgmI,2020-0188,2020-11-16,18:59:35,19:18:18,NA,incomplete,59,shape,1,1,right,Red_Plus_Dots_2.jpg,Red_Triangle_Chess_1.jpg,Green_Plus_Grid_4.jpg,right,840,true,high,false
Zmf4DgmI,3oplmf3ev80afezcyc4phujqmmslnu,3zwfc4w1uykbh4f2wanaklf83kmfrw,Zmf4DgmI,2020-0188,2020-11-16,18:59:35,19:18:18,NA,incomplete,60,color,0,0,left,Red_Plus_Grid_2.jpg,Red_Triangle_Chess_1.jpg,Green_Plus_Stripes_3.jpg,right,795,false,high,false
Zmf4DgmI,3oplmf3ev80afezcyc4phujqmmslnu,3zwfc4w1uykbh4f2wanaklf83kmfrw,Zmf4DgmI,2020-0188,2020-11-16,18:59:35,19:18:18,NA,incomplete,61,color,0,1,left,Blue_Plus_Grid_2.jpg,Blue_Star_Stripes_3.jpg,Green_Plus_Dots_1.jpg,right,1009,false,high,false
Zmf4DgmI,3oplmf3ev80afezcyc4phujqmmslnu,3zwfc4w1uykbh4f2wanaklf83kmfrw,Zmf4DgmI,2020-0188,2020-11-16,18:59:35,19:18:18,NA,incomplete,62,color,0,0,right,Green_Circle_Chess_4.jpg,Red_Circle_Grid_3.jpg,Green_Triangle_Dots_1.jpg,left,780,false,high,false
Zmf4DgmI,3oplmf3ev80afezcyc4phujqmmslnu,3zwfc4w1uykbh4f2wanaklf83kmfrw,Zmf4DgmI,2020-0188,2020-11-16,18:59:35,19:18:18,NA,incomplete,63,color,0,0,right,Blue_Triangle_Dots_4.jpg,Purple_Triangle_Chess_2.jpg,Blue_Plus_Grid_1.jpg,left,737,false,high,false
Zmf4DgmI,3oplmf3ev80afezcyc4phujqmmslnu,3zwfc4w1uykbh4f2wanaklf83kmfrw,Zmf4DgmI,2020-0188,2020-11-16,18:59:35,19:18:18,NA,incomplete,64,color,0,1,left,Purple_Triangle_Stripes_1.jpg,Purple_Star_Dots_2.jpg,Red_Triangle_Grid_4.jpg,right,712,false,high,false
Zmf4DgmI,3oplmf3ev80afezcyc4phujqmmslnu,3zwfc4w1uykbh4f2wanaklf83kmfrw,Zmf4DgmI,2020-0188,2020-11-16,18:59:35,19:18:18,NA,incomplete,65,color,0,1,left,Purple_Triangle_Chess_3.jpg,Purple_Star_Dots_2.jpg,Blue_Triangle_Grid_1.jpg,right,785,false,high,false
Zmf4DgmI,3oplmf3ev80afezcyc4phujqmmslnu,3zwfc4w1uykbh4f2wanaklf83kmfrw,Zmf4DgmI,2020-0188,2020-11-16,18:59:35,19:18:18,NA,incomplete,66,color,0,1,left,Green_Plus_Chess_2.jpg,Green_Circle_Stripes_1.jpg,Purple_Plus_Grid_4.jpg,left,918,true,high,false
Zmf4DgmI,3oplmf3ev80afezcyc4phujqmmslnu,3zwfc4w1uykbh4f2wanaklf83kmfrw,Zmf4DgmI,2020-0188,2020-11-16,18:59:35,19:18:18,NA,incomplete,67,color,0,1,left,Blue_Star_Grid_2.jpg,Blue_Plus_Stripes_1.jpg,Green_Star_Dots_3.jpg,left,773,true,high,false
Zmf4DgmI,3oplmf3ev80afezcyc4phujqmmslnu,3zwfc4w1uykbh4f2wanaklf83kmfrw,Zmf4DgmI,2020-0188,2020-11-16,18:59:35,19:18:18,NA,incomplete,68,color,0,1,left,Blue_Circle_Grid_1.jpg,Blue_Star_Chess_4.jpg,Purple_Circle_Stripes_3.jpg,left,715,true,high,false
Zmf4DgmI,3oplmf3ev80afezcyc4phujqmmslnu,3zwfc4w1uykbh4f2wanaklf83kmfrw,Zmf4DgmI,2020-0188,2020-11-16,18:59:35,19:18:18,NA,incomplete,69,color,0,1,right,Purple_Star_Grid_1.jpg,Green_Star_Stripes_4.jpg,Purple_Triangle_Dots_3.jpg,left,931,false,high,false
Zmf4DgmI,3oplmf3ev80afezcyc4phujqmmslnu,3zwfc4w1uykbh4f2wanaklf83kmfrw,Zmf4DgmI,2020-0188,2020-11-16,18:59:35,19:18:18,NA,incomplete,70,shape,1,1,right,Green_Star_Stripes_1.jpg,Green_Plus_Grid_4.jpg,Blue_Star_Chess_2.jpg,left,594,false,high,false
Zmf4DgmI,3oplmf3ev80afezcyc4phujqmmslnu,3zwfc4w1uykbh4f2wanaklf83kmfrw,Zmf4DgmI,2020-0188,2020-11-16,18:59:35,19:18:18,NA,incomplete,71,shape,1,1,right,Purple_Star_Dots_3.jpg,Purple_Triangle_Stripes_4.jpg,Red_Star_Chess_1.jpg,right,1039,true,high,false
Zmf4DgmI,3oplmf3ev80afezcyc4phujqmmslnu,3zwfc4w1uykbh4f2wanaklf83kmfrw,Zmf4DgmI,2020-0188,2020-11-16,18:59:35,19:18:18,NA,incomplete,72,shape,1,1,right,Purple_Plus_Dots_4.jpg,Purple_Star_Stripes_3.jpg,Red_Plus_Chess_2.jpg,right,857,true,high,false
Zmf4DgmI,3oplmf3ev80afezcyc4phujqmmslnu,3zwfc4w1uykbh4f2wanaklf83kmfrw,Zmf4DgmI,2020-0188,2020-11-16,18:59:35,19:18:18,NA,incomplete,73,shape,1,1,right,Red_Plus_Chess_3.jpg,Red_Circle_Grid_4.jpg,Purple_Plus_Dots_2.jpg,right,763,true,high,false
Zmf4DgmI,3oplmf3ev80afezcyc4phujqmmslnu,3zwfc4w1uykbh4f2wanaklf83kmfrw,Zmf4DgmI,2020-0188,2020-11-16,18:59:35,19:18:18,NA,incomplete,74,shape,1,1,right,Green_Star_Grid_4.jpg,Green_Plus_Chess_1.jpg,Purple_Star_Stripes_3.jpg,right,850,true,high,false
Zmf4DgmI,3oplmf3ev80afezcyc4phujqmmslnu,3zwfc4w1uykbh4f2wanaklf83kmfrw,Zmf4DgmI,2020-0188,2020-11-16,18:59:35,19:18:18,NA,incomplete,75,shape,1,1,right,Blue_Plus_Chess_4.jpg,Blue_Triangle_Stripes_2.jpg,Red_Plus_Dots_3.jpg,right,868,true,high,false
Zmf4DgmI,3oplmf3ev80afezcyc4phujqmmslnu,3zwfc4w1uykbh4f2wanaklf83kmfrw,Zmf4DgmI,2020-0188,2020-11-16,18:59:35,19:18:18,NA,incomplete,76,shape,1,1,right,Purple_Plus_Stripes_1.jpg,Purple_Star_Dots_2.jpg,Green_Plus_Chess_3.jpg,right,855,true,high,false
Zmf4DgmI,3oplmf3ev80afezcyc4phujqmmslnu,3zwfc4w1uykbh4f2wanaklf83kmfrw,Zmf4DgmI,2020-0188,2020-11-16,18:59:35,19:18:18,NA,incomplete,77,shape,1,1,right,Blue_Circle_Grid_1.jpg,Blue_Plus_Dots_2.jpg,Green_Circle_Stripes_3.jpg,right,809,true,high,false
Zmf4DgmI,3oplmf3ev80afezcyc4phujqmmslnu,3zwfc4w1uykbh4f2wanaklf83kmfrw,Zmf4DgmI,2020-0188,2020-11-16,18:59:35,19:18:18,NA,incomplete,78,shape,1,1,right,Blue_Triangle_Grid_2.jpg,Blue_Plus_Dots_1.jpg,Purple_Triangle_Stripes_4.jpg,right,684,true,high,false
Zmf4DgmI,3oplmf3ev80afezcyc4phujqmmslnu,3zwfc4w1uykbh4f2wanaklf83kmfrw,Zmf4DgmI,2020-0188,2020-11-16,18:59:35,19:18:18,NA,incomplete,79,shape,1,0,right,Blue_Star_Stripes_3.jpg,Blue_Plus_Chess_1.jpg,Purple_Star_Grid_4.jpg,right,837,true,high,false
Zmf4DgmI,3oplmf3ev80afezcyc4phujqmmslnu,3zwfc4w1uykbh4f2wanaklf83kmfrw,Zmf4DgmI,2020-0188,2020-11-16,18:59:35,19:18:18,NA,incomplete,80,color,0,1,right,Purple_Triangle_Chess_4.jpg,Green_Triangle_Grid_1.jpg,Purple_Circle_Dots_3.jpg,right,760,true,high,false
Zmf4DgmI,3oplmf3ev80afezcyc4phujqmmslnu,3zwfc4w1uykbh4f2wanaklf83kmfrw,Zmf4DgmI,2020-0188,2020-11-16,18:59:35,19:18:18,NA,incomplete,81,color,0,1,left,Red_Triangle_Dots_1.jpg,Red_Plus_Chess_3.jpg,Green_Triangle_Grid_2.jpg,left,733,true,high,false
Zmf4DgmI,3oplmf3ev80afezcyc4phujqmmslnu,3zwfc4w1uykbh4f2wanaklf83kmfrw,Zmf4DgmI,2020-0188,2020-11-16,18:59:35,19:18:18,NA,incomplete,82,color,0,1,right,Red_Triangle_Dots_2.jpg,Purple_Triangle_Grid_3.jpg,Red_Circle_Chess_1.jpg,left,789,false,high,false
Zmf4DgmI,3oplmf3ev80afezcyc4phujqmmslnu,3zwfc4w1uykbh4f2wanaklf83kmfrw,Zmf4DgmI,2020-0188,2020-11-16,18:59:35,19:18:18,NA,incomplete,83,color,0,1,left,Green_Circle_Chess_2.jpg,Green_Star_Dots_1.jpg,Blue_Circle_Stripes_4.jpg,right,921,false,high,false
Zmf4DgmI,3oplmf3ev80afezcyc4phujqmmslnu,3zwfc4w1uykbh4f2wanaklf83kmfrw,Zmf4DgmI,2020-0188,2020-11-16,18:59:35,19:18:18,NA,incomplete,84,color,0,1,left,Red_Circle_Dots_3.jpg,Red_Star_Stripes_2.jpg,Green_Circle_Chess_1.jpg,left,665,true,high,false
Zmf4DgmI,3oplmf3ev80afezcyc4phujqmmslnu,3zwfc4w1uykbh4f2wanaklf83kmfrw,Zmf4DgmI,2020-0188,2020-11-16,18:59:35,19:18:18,NA,incomplete,85,color,0,1,right,Blue_Circle_Dots_4.jpg,Green_Circle_Chess_3.jpg,Blue_Star_Stripes_2.jpg,right,836,true,high,false
Zmf4DgmI,3oplmf3ev80afezcyc4phujqmmslnu,3zwfc4w1uykbh4f2wanaklf83kmfrw,Zmf4DgmI,2020-0188,2020-11-16,18:59:35,19:18:18,NA,incomplete,86,color,0,0,left,Green_Circle_Chess_1.jpg,Green_Plus_Stripes_2.jpg,Purple_Circle_Grid_3.jpg,left,678,true,high,false
Zmf4DgmI,3oplmf3ev80afezcyc4phujqmmslnu,3zwfc4w1uykbh4f2wanaklf83kmfrw,Zmf4DgmI,2020-0188,2020-11-16,18:59:35,19:18:18,NA,incomplete,87,color,0,0,right,Purple_Circle_Grid_2.jpg,Red_Circle_Stripes_1.jpg,Purple_Star_Dots_4.jpg,right,703,true,high,false
Zmf4DgmI,3oplmf3ev80afezcyc4phujqmmslnu,3zwfc4w1uykbh4f2wanaklf83kmfrw,Zmf4DgmI,2020-0188,2020-11-16,18:59:35,19:18:18,NA,incomplete,88,color,0,1,left,Blue_Triangle_Stripes_4.jpg,Blue_Circle_Dots_2.jpg,Red_Triangle_Chess_1.jpg,right,823,false,high,false
Zmf4DgmI,3oplmf3ev80afezcyc4phujqmmslnu,3zwfc4w1uykbh4f2wanaklf83kmfrw,Zmf4DgmI,2020-0188,2020-11-16,18:59:35,19:18:18,NA,incomplete,89,color,0,1,left,Green_Plus_Chess_1.jpg,Green_Circle_Stripes_2.jpg,Blue_Plus_Grid_3.jpg,right,794,false,high,false
Zmf4DgmI,3oplmf3ev80afezcyc4phujqmmslnu,3zwfc4w1uykbh4f2wanaklf83kmfrw,Zmf4DgmI,2020-0188,2020-11-16,18:59:35,19:18:18,NA,incomplete,90,shape,1,1,right,Green_Circle_Stripes_4.jpg,Green_Plus_Chess_2.jpg,Red_Circle_Dots_3.jpg,left,800,false,high,false
Zmf4DgmI,3oplmf3ev80afezcyc4phujqmmslnu,3zwfc4w1uykbh4f2wanaklf83kmfrw,Zmf4DgmI,2020-0188,2020-11-16,18:59:35,19:18:18,NA,incomplete,91,shape,1,1,right,Red_Circle_Chess_3.jpg,Red_Triangle_Stripes_4.jpg,Green_Circle_Dots_1.jpg,left,644,false,high,false
Zmf4DgmI,3oplmf3ev80afezcyc4phujqmmslnu,3zwfc4w1uykbh4f2wanaklf83kmfrw,Zmf4DgmI,2020-0188,2020-11-16,18:59:35,19:18:18,NA,incomplete,92,shape,1,1,left,Green_Plus_Dots_1.jpg,Red_Plus_Stripes_4.jpg,Green_Star_Grid_2.jpg,left,1053,true,high,false
Zmf4DgmI,3oplmf3ev80afezcyc4phujqmmslnu,3zwfc4w1uykbh4f2wanaklf83kmfrw,Zmf4DgmI,2020-0188,2020-11-16,18:59:35,19:18:18,NA,incomplete,93,shape,1,1,right,Purple_Plus_Chess_4.jpg,Purple_Circle_Dots_2.jpg,Blue_Plus_Stripes_3.jpg,right,713,true,high,false
Zmf4DgmI,3oplmf3ev80afezcyc4phujqmmslnu,3zwfc4w1uykbh4f2wanaklf83kmfrw,Zmf4DgmI,2020-0188,2020-11-16,18:59:35,19:18:18,NA,incomplete,94,shape,1,1,right,Purple_Plus_Chess_3.jpg,Purple_Star_Dots_2.jpg,Green_Plus_Stripes_1.jpg,right,785,true,high,false
Zmf4DgmI,3oplmf3ev80afezcyc4phujqmmslnu,3zwfc4w1uykbh4f2wanaklf83kmfrw,Zmf4DgmI,2020-0188,2020-11-16,18:59:35,19:18:18,NA,incomplete,95,shape,1,0,left,Green_Triangle_Dots_4.jpg,Red_Triangle_Grid_2.jpg,Green_Star_Chess_1.jpg,left,804,true,high,false
Zmf4DgmI,3oplmf3ev80afezcyc4phujqmmslnu,3zwfc4w1uykbh4f2wanaklf83kmfrw,Zmf4DgmI,2020-0188,2020-11-16,18:59:35,19:18:18,NA,incomplete,96,shape,1,1,left,Blue_Star_Dots_4.jpg,Purple_Star_Stripes_1.jpg,Blue_Triangle_Chess_2.jpg,right,761,false,high,false
Zmf4DgmI,3oplmf3ev80afezcyc4phujqmmslnu,3zwfc4w1uykbh4f2wanaklf83kmfrw,Zmf4DgmI,2020-0188,2020-11-16,18:59:35,19:18:18,NA,incomplete,97,shape,1,1,right,Red_Triangle_Grid_2.jpg,Red_Star_Stripes_1.jpg,Blue_Triangle_Chess_4.jpg,right,848,true,high,false
Zmf4DgmI,3oplmf3ev80afezcyc4phujqmmslnu,3zwfc4w1uykbh4f2wanaklf83kmfrw,Zmf4DgmI,2020-0188,2020-11-16,18:59:35,19:18:18,NA,incomplete,98,shape,1,0,left,Red_Star_Dots_2.jpg,Purple_Star_Stripes_1.jpg,Red_Triangle_Grid_3.jpg,left,851,true,high,false
Zmf4DgmI,3oplmf3ev80afezcyc4phujqmmslnu,3zwfc4w1uykbh4f2wanaklf83kmfrw,Zmf4DgmI,2020-0188,2020-11-16,18:59:35,19:18:18,NA,incomplete,99,shape,1,0,left,Green_Triangle_Grid_4.jpg,Red_Triangle_Chess_3.jpg,Green_Plus_Dots_1.jpg,left,790,true,high,false
Zmf4DgmI,3oplmf3ev80afezcyc4phujqmmslnu,3zwfc4w1uykbh4f2wanaklf83kmfrw,Zmf4DgmI,2020-0188,2020-11-16,18:59:35,19:18:18,NA,incomplete,100,color,0,1,right,Red_Triangle_Stripes_1.jpg,Purple_Triangle_Chess_2.jpg,Red_Plus_Grid_3.jpg,right,1098,true,high,false
Zmf4DgmI,3oplmf3ev80afezcyc4phujqmmslnu,3zwfc4w1uykbh4f2wanaklf83kmfrw,Zmf4DgmI,2020-0188,2020-11-16,18:59:35,19:18:18,NA,incomplete,101,color,0,1,left,Purple_Circle_Grid_3.jpg,Purple_Plus_Stripes_1.jpg,Blue_Circle_Chess_4.jpg,left,771,true,high,false
Zmf4DgmI,3oplmf3ev80afezcyc4phujqmmslnu,3zwfc4w1uykbh4f2wanaklf83kmfrw,Zmf4DgmI,2020-0188,2020-11-16,18:59:35,19:18:18,NA,incomplete,102,color,0,1,right,Green_Triangle_Chess_2.jpg,Blue_Triangle_Grid_4.jpg,Green_Plus_Stripes_3.jpg,right,802,true,high,false
Zmf4DgmI,3oplmf3ev80afezcyc4phujqmmslnu,3zwfc4w1uykbh4f2wanaklf83kmfrw,Zmf4DgmI,2020-0188,2020-11-16,18:59:35,19:18:18,NA,incomplete,103,color,0,0,left,Purple_Triangle_Chess_4.jpg,Purple_Circle_Grid_1.jpg,Blue_Triangle_Stripes_2.jpg,left,829,true,high,false
Zmf4DgmI,3oplmf3ev80afezcyc4phujqmmslnu,3zwfc4w1uykbh4f2wanaklf83kmfrw,Zmf4DgmI,2020-0188,2020-11-16,18:59:35,19:18:18,NA,incomplete,104,color,0,1,right,Green_Triangle_Stripes_4.jpg,Purple_Triangle_Grid_1.jpg,Green_Circle_Chess_2.jpg,right,624,true,high,false
Zmf4DgmI,3oplmf3ev80afezcyc4phujqmmslnu,3zwfc4w1uykbh4f2wanaklf83kmfrw,Zmf4DgmI,2020-0188,2020-11-16,18:59:35,19:18:18,NA,incomplete,105,color,0,1,left,Blue_Triangle_Grid_4.jpg,Blue_Circle_Dots_3.jpg,Green_Triangle_Chess_1.jpg,left,699,true,high,false
Zmf4DgmI,3oplmf3ev80afezcyc4phujqmmslnu,3zwfc4w1uykbh4f2wanaklf83kmfrw,Zmf4DgmI,2020-0188,2020-11-16,18:59:35,19:18:18,NA,incomplete,106,color,0,1,left,Blue_Plus_Dots_1.jpg,Blue_Circle_Stripes_2.jpg,Purple_Plus_Chess_3.jpg,left,900,true,high,false
Zmf4DgmI,3oplmf3ev80afezcyc4phujqmmslnu,3zwfc4w1uykbh4f2wanaklf83kmfrw,Zmf4DgmI,2020-0188,2020-11-16,18:59:35,19:18:18,NA,incomplete,107,color,0,1,right,Purple_Star_Chess_2.jpg,Blue_Star_Grid_3.jpg,Purple_Plus_Dots_1.jpg,right,836,true,high,false
Zmf4DgmI,3oplmf3ev80afezcyc4phujqmmslnu,3zwfc4w1uykbh4f2wanaklf83kmfrw,Zmf4DgmI,2020-0188,2020-11-16,18:59:35,19:18:18,NA,incomplete,108,color,0,1,left,Purple_Plus_Grid_1.jpg,Purple_Triangle_Dots_4.jpg,Red_Plus_Stripes_2.jpg,left,727,true,high,false
Zmf4DgmI,3oplmf3ev80afezcyc4phujqmmslnu,3zwfc4w1uykbh4f2wanaklf83kmfrw,Zmf4DgmI,2020-0188,2020-11-16,18:59:35,19:18:18,NA,incomplete,109,color,0,0,right,Blue_Plus_Chess_3.jpg,Green_Plus_Stripes_1.jpg,Blue_Circle_Dots_2.jpg,right,639,true,high,false
Zmf4DgmI,3oplmf3ev80afezcyc4phujqmmslnu,3zwfc4w1uykbh4f2wanaklf83kmfrw,Zmf4DgmI,2020-0188,2020-11-16,18:59:35,19:18:18,NA,incomplete,110,shape,1,1,right,Red_Triangle_Dots_4.jpg,Red_Plus_Chess_2.jpg,Green_Triangle_Stripes_1.jpg,left,730,false,high,false
Zmf4DgmI,3oplmf3ev80afezcyc4phujqmmslnu,3zwfc4w1uykbh4f2wanaklf83kmfrw,Zmf4DgmI,2020-0188,2020-11-16,18:59:35,19:18:18,NA,incomplete,111,shape,1,1,right,Green_Circle_Chess_3.jpg,Green_Plus_Grid_1.jpg,Blue_Circle_Dots_4.jpg,right,818,true,high,false
Zmf4DgmI,3oplmf3ev80afezcyc4phujqmmslnu,3zwfc4w1uykbh4f2wanaklf83kmfrw,Zmf4DgmI,2020-0188,2020-11-16,18:59:35,19:18:18,NA,incomplete,112,shape,1,1,left,Blue_Triangle_Grid_3.jpg,Green_Triangle_Chess_1.jpg,Blue_Plus_Stripes_2.jpg,left,773,true,high,false
Zmf4DgmI,3oplmf3ev80afezcyc4phujqmmslnu,3zwfc4w1uykbh4f2wanaklf83kmfrw,Zmf4DgmI,2020-0188,2020-11-16,18:59:35,19:18:18,NA,incomplete,113,shape,1,0,left,Red_Plus_Grid_4.jpg,Purple_Plus_Dots_2.jpg,Red_Triangle_Stripes_3.jpg,left,794,true,high,false
Zmf4DgmI,3oplmf3ev80afezcyc4phujqmmslnu,3zwfc4w1uykbh4f2wanaklf83kmfrw,Zmf4DgmI,2020-0188,2020-11-16,18:59:35,19:18:18,NA,incomplete,114,shape,1,1,left,Green_Star_Chess_4.jpg,Blue_Star_Grid_3.jpg,Green_Triangle_Stripes_1.jpg,right,671,false,high,false
Zmf4DgmI,3oplmf3ev80afezcyc4phujqmmslnu,3zwfc4w1uykbh4f2wanaklf83kmfrw,Zmf4DgmI,2020-0188,2020-11-16,18:59:35,19:18:18,NA,incomplete,115,shape,1,1,right,Red_Plus_Chess_3.jpg,Red_Triangle_Grid_1.jpg,Green_Plus_Stripes_4.jpg,right,1000,true,high,false
Zmf4DgmI,3oplmf3ev80afezcyc4phujqmmslnu,3zwfc4w1uykbh4f2wanaklf83kmfrw,Zmf4DgmI,2020-0188,2020-11-16,18:59:35,19:18:18,NA,incomplete,116,shape,1,0,right,Blue_Plus_Dots_3.jpg,Blue_Triangle_Stripes_1.jpg,Red_Plus_Chess_2.jpg,right,1124,true,high,false
Zmf4DgmI,3oplmf3ev80afezcyc4phujqmmslnu,3zwfc4w1uykbh4f2wanaklf83kmfrw,Zmf4DgmI,2020-0188,2020-11-16,18:59:35,19:18:18,NA,incomplete,117,shape,1,1,left,Red_Triangle_Grid_4.jpg,Blue_Triangle_Dots_2.jpg,Red_Plus_Stripes_3.jpg,right,637,false,high,false
Zmf4DgmI,3oplmf3ev80afezcyc4phujqmmslnu,3zwfc4w1uykbh4f2wanaklf83kmfrw,Zmf4DgmI,2020-0188,2020-11-16,18:59:35,19:18:18,NA,incomplete,118,shape,1,0,left,Red_Star_Grid_1.jpg,Purple_Star_Dots_3.jpg,Red_Circle_Chess_4.jpg,left,727,true,high,false
Zmf4DgmI,3oplmf3ev80afezcyc4phujqmmslnu,3zwfc4w1uykbh4f2wanaklf83kmfrw,Zmf4DgmI,2020-0188,2020-11-16,18:59:35,19:18:18,NA,incomplete,119,shape,1,1,left,Red_Star_Dots_4.jpg,Green_Star_Stripes_3.jpg,Red_Plus_Grid_2.jpg,left,943,true,high,false
Zmf4DgmI,3oplmf3ev80afezcyc4phujqmmslnu,3zwfc4w1uykbh4f2wanaklf83kmfrw,Zmf4DgmI,2020-0188,2020-11-16,18:59:35,19:18:18,NA,incomplete,120,gender,2,1,left,A_F_07.jpg,C_F_08.jpg,A_M_12.jpg,NA,NA,NA,high,false
Zmf4DgmI,3oplmf3ev80afezcyc4phujqmmslnu,3zwfc4w1uykbh4f2wanaklf83kmfrw,Zmf4DgmI,2020-0188,2020-11-16,18:59:35,19:18:18,NA,incomplete,121,gender,2,1,left,C_F_16.jpg,A_F_14.jpg,C_M_10.jpg,left,1150,true,high,false
Zmf4DgmI,3oplmf3ev80afezcyc4phujqmmslnu,3zwfc4w1uykbh4f2wanaklf83kmfrw,Zmf4DgmI,2020-0188,2020-11-16,18:59:35,19:18:18,NA,incomplete,122,gender,2,1,right,C_M_04.jpg,C_F_06.jpg,A_M_07.jpg,right,1156,true,high,false
Zmf4DgmI,3oplmf3ev80afezcyc4phujqmmslnu,3zwfc4w1uykbh4f2wanaklf83kmfrw,Zmf4DgmI,2020-0188,2020-11-16,18:59:35,19:18:18,NA,incomplete,123,gender,2,1,right,A_F_16.jpg,A_M_15.jpg,C_F_07.jpg,right,954,true,high,false
Zmf4DgmI,3oplmf3ev80afezcyc4phujqmmslnu,3zwfc4w1uykbh4f2wanaklf83kmfrw,Zmf4DgmI,2020-0188,2020-11-16,18:59:35,19:18:18,NA,incomplete,124,gender,2,1,left,C_F_09.jpg,A_F_16.jpg,C_M_06.jpg,left,937,true,high,false
Zmf4DgmI,3oplmf3ev80afezcyc4phujqmmslnu,3zwfc4w1uykbh4f2wanaklf83kmfrw,Zmf4DgmI,2020-0188,2020-11-16,18:59:35,19:18:18,NA,incomplete,125,gender,2,1,left,C_F_05.jpg,A_F_10.jpg,C_M_15.jpg,left,967,true,high,false
Zmf4DgmI,3oplmf3ev80afezcyc4phujqmmslnu,3zwfc4w1uykbh4f2wanaklf83kmfrw,Zmf4DgmI,2020-0188,2020-11-16,18:59:35,19:18:18,NA,incomplete,126,gender,2,0,right,A_M_04.jpg,A_F_12.jpg,C_M_01.jpg,right,1173,true,high,false
Zmf4DgmI,3oplmf3ev80afezcyc4phujqmmslnu,3zwfc4w1uykbh4f2wanaklf83kmfrw,Zmf4DgmI,2020-0188,2020-11-16,18:59:35,19:18:18,NA,incomplete,127,gender,2,1,right,C_F_15.jpg,C_M_14.jpg,A_F_09.jpg,right,1307,true,high,false
Zmf4DgmI,3oplmf3ev80afezcyc4phujqmmslnu,3zwfc4w1uykbh4f2wanaklf83kmfrw,Zmf4DgmI,2020-0188,2020-11-16,18:59:35,19:18:18,NA,incomplete,128,gender,2,1,left,C_F_07.jpg,A_F_11.jpg,C_M_08.jpg,left,1035,true,high,false
Zmf4DgmI,3oplmf3ev80afezcyc4phujqmmslnu,3zwfc4w1uykbh4f2wanaklf83kmfrw,Zmf4DgmI,2020-0188,2020-11-16,18:59:35,19:18:18,NA,incomplete,129,gender,2,1,left,A_F_15.jpg,C_F_10.jpg,A_M_08.jpg,left,902,true,high,false
Zmf4DgmI,3oplmf3ev80afezcyc4phujqmmslnu,3zwfc4w1uykbh4f2wanaklf83kmfrw,Zmf4DgmI,2020-0188,2020-11-16,18:59:35,19:18:18,NA,incomplete,130,gender,2,1,right,A_F_14.jpg,A_M_10.jpg,C_F_08.jpg,right,886,true,high,false
Zmf4DgmI,3oplmf3ev80afezcyc4phujqmmslnu,3zwfc4w1uykbh4f2wanaklf83kmfrw,Zmf4DgmI,2020-0188,2020-11-16,18:59:35,19:18:18,NA,incomplete,131,gender,2,1,left,C_M_07.jpg,A_M_06.jpg,C_F_02.jpg,left,1078,true,high,false
Zmf4DgmI,3oplmf3ev80afezcyc4phujqmmslnu,3zwfc4w1uykbh4f2wanaklf83kmfrw,Zmf4DgmI,2020-0188,2020-11-16,18:59:35,19:18:18,NA,incomplete,132,gender,2,1,left,A_M_10.jpg,C_M_16.jpg,A_F_11.jpg,left,1216,true,high,false
Zmf4DgmI,3oplmf3ev80afezcyc4phujqmmslnu,3zwfc4w1uykbh4f2wanaklf83kmfrw,Zmf4DgmI,2020-0188,2020-11-16,18:59:35,19:18:18,NA,incomplete,133,gender,2,1,left,C_M_13.jpg,A_M_16.jpg,C_F_15.jpg,left,949,true,high,false
Zmf4DgmI,3oplmf3ev80afezcyc4phujqmmslnu,3zwfc4w1uykbh4f2wanaklf83kmfrw,Zmf4DgmI,2020-0188,2020-11-16,18:59:35,19:18:18,NA,incomplete,134,gender,2,1,left,A_F_01.jpg,C_F_08.jpg,A_M_05.jpg,left,930,true,high,false
Zmf4DgmI,3oplmf3ev80afezcyc4phujqmmslnu,3zwfc4w1uykbh4f2wanaklf83kmfrw,Zmf4DgmI,2020-0188,2020-11-16,18:59:35,19:18:18,NA,incomplete,135,gender,2,0,right,C_F_11.jpg,C_M_03.jpg,A_F_08.jpg,right,884,true,high,false
Zmf4DgmI,3oplmf3ev80afezcyc4phujqmmslnu,3zwfc4w1uykbh4f2wanaklf83kmfrw,Zmf4DgmI,2020-0188,2020-11-16,18:59:35,19:18:18,NA,incomplete,136,gender,2,1,left,A_F_12.jpg,C_F_02.jpg,A_M_05.jpg,left,803,true,high,false
Zmf4DgmI,3oplmf3ev80afezcyc4phujqmmslnu,3zwfc4w1uykbh4f2wanaklf83kmfrw,Zmf4DgmI,2020-0188,2020-11-16,18:59:35,19:18:18,NA,incomplete,137,gender,2,1,left,A_M_10.jpg,C_M_01.jpg,A_F_08.jpg,left,1016,true,high,false
Zmf4DgmI,3oplmf3ev80afezcyc4phujqmmslnu,3zwfc4w1uykbh4f2wanaklf83kmfrw,Zmf4DgmI,2020-0188,2020-11-16,18:59:35,19:18:18,NA,incomplete,138,gender,2,1,right,A_F_04.jpg,A_M_11.jpg,C_F_12.jpg,right,915,true,high,false
Zmf4DgmI,3oplmf3ev80afezcyc4phujqmmslnu,3zwfc4w1uykbh4f2wanaklf83kmfrw,Zmf4DgmI,2020-0188,2020-11-16,18:59:35,19:18:18,NA,incomplete,139,gender,2,1,left,C_M_15.jpg,A_M_07.jpg,C_F_02.jpg,left,1108,true,high,false
Zmf4DgmI,3oplmf3ev80afezcyc4phujqmmslnu,3zwfc4w1uykbh4f2wanaklf83kmfrw,Zmf4DgmI,2020-0188,2020-11-16,18:59:35,19:18:18,NA,incomplete,140,race,3,0,left,A_F_13.jpg,A_M_03.jpg,C_F_04.jpg,right,859,false,high,false
Zmf4DgmI,3oplmf3ev80afezcyc4phujqmmslnu,3zwfc4w1uykbh4f2wanaklf83kmfrw,Zmf4DgmI,2020-0188,2020-11-16,18:59:35,19:18:18,NA,incomplete,141,race,3,1,left,C_F_12.jpg,C_M_14.jpg,A_F_10.jpg,right,814,false,high,false
Zmf4DgmI,3oplmf3ev80afezcyc4phujqmmslnu,3zwfc4w1uykbh4f2wanaklf83kmfrw,Zmf4DgmI,2020-0188,2020-11-16,18:59:35,19:18:18,NA,incomplete,142,race,3,1,right,C_F_14.jpg,A_F_13.jpg,C_M_16.jpg,left,786,false,high,false
Zmf4DgmI,3oplmf3ev80afezcyc4phujqmmslnu,3zwfc4w1uykbh4f2wanaklf83kmfrw,Zmf4DgmI,2020-0188,2020-11-16,18:59:35,19:18:18,NA,incomplete,143,race,3,0,left,A_M_01.jpg,A_F_14.jpg,C_M_16.jpg,left,1079,true,high,false
Zmf4DgmI,3oplmf3ev80afezcyc4phujqmmslnu,3zwfc4w1uykbh4f2wanaklf83kmfrw,Zmf4DgmI,2020-0188,2020-11-16,18:59:35,19:18:18,NA,incomplete,144,race,3,1,right,C_M_12.jpg,A_M_07.jpg,C_F_01.jpg,right,1121,true,high,false
Zmf4DgmI,3oplmf3ev80afezcyc4phujqmmslnu,3zwfc4w1uykbh4f2wanaklf83kmfrw,Zmf4DgmI,2020-0188,2020-11-16,18:59:35,19:18:18,NA,incomplete,145,race,3,1,left,A_M_01.jpg,A_F_05.jpg,C_M_06.jpg,right,1111,false,high,false
Zmf4DgmI,3oplmf3ev80afezcyc4phujqmmslnu,3zwfc4w1uykbh4f2wanaklf83kmfrw,Zmf4DgmI,2020-0188,2020-11-16,18:59:35,19:18:18,NA,incomplete,146,race,3,0,right,C_M_05.jpg,A_M_14.jpg,C_F_07.jpg,left,1103,false,high,false
Zmf4DgmI,3oplmf3ev80afezcyc4phujqmmslnu,3zwfc4w1uykbh4f2wanaklf83kmfrw,Zmf4DgmI,2020-0188,2020-11-16,18:59:35,19:18:18,NA,incomplete,147,race,3,1,left,C_F_09.jpg,C_M_05.jpg,A_F_11.jpg,right,952,false,high,false
Zmf4DgmI,3oplmf3ev80afezcyc4phujqmmslnu,3zwfc4w1uykbh4f2wanaklf83kmfrw,Zmf4DgmI,2020-0188,2020-11-16,18:59:35,19:18:18,NA,incomplete,148,race,3,0,right,C_F_14.jpg,A_F_08.jpg,C_M_09.jpg,right,1094,true,high,false
Zmf4DgmI,3oplmf3ev80afezcyc4phujqmmslnu,3zwfc4w1uykbh4f2wanaklf83kmfrw,Zmf4DgmI,2020-0188,2020-11-16,18:59:35,19:18:18,NA,incomplete,149,race,3,1,left,A_F_16.jpg,A_M_01.jpg,C_F_02.jpg,right,832,false,high,false
Zmf4DgmI,3oplmf3ev80afezcyc4phujqmmslnu,3zwfc4w1uykbh4f2wanaklf83kmfrw,Zmf4DgmI,2020-0188,2020-11-16,18:59:35,19:18:18,NA,incomplete,150,race,3,0,left,A_M_10.jpg,A_F_16.jpg,C_M_09.jpg,right,995,false,high,false
Zmf4DgmI,3oplmf3ev80afezcyc4phujqmmslnu,3zwfc4w1uykbh4f2wanaklf83kmfrw,Zmf4DgmI,2020-0188,2020-11-16,18:59:35,19:18:18,NA,incomplete,151,race,3,1,left,A_F_03.jpg,A_M_09.jpg,C_F_10.jpg,right,1040,false,high,false
Zmf4DgmI,3oplmf3ev80afezcyc4phujqmmslnu,3zwfc4w1uykbh4f2wanaklf83kmfrw,Zmf4DgmI,2020-0188,2020-11-16,18:59:35,19:18:18,NA,incomplete,152,race,3,1,left,C_M_13.jpg,C_F_08.jpg,A_M_09.jpg,right,954,false,high,false
Zmf4DgmI,3oplmf3ev80afezcyc4phujqmmslnu,3zwfc4w1uykbh4f2wanaklf83kmfrw,Zmf4DgmI,2020-0188,2020-11-16,18:59:35,19:18:18,NA,incomplete,153,race,3,1,left,A_F_01.jpg,A_M_04.jpg,C_F_03.jpg,left,1095,true,high,false
Zmf4DgmI,3oplmf3ev80afezcyc4phujqmmslnu,3zwfc4w1uykbh4f2wanaklf83kmfrw,Zmf4DgmI,2020-0188,2020-11-16,18:59:35,19:18:18,NA,incomplete,154,race,3,0,left,A_M_09.jpg,A_F_15.jpg,C_M_13.jpg,left,1073,true,high,false
Zmf4DgmI,3oplmf3ev80afezcyc4phujqmmslnu,3zwfc4w1uykbh4f2wanaklf83kmfrw,Zmf4DgmI,2020-0188,2020-11-16,18:59:35,19:18:18,NA,incomplete,155,race,3,1,right,A_M_09.jpg,C_M_03.jpg,A_F_01.jpg,left,1034,false,high,false
Zmf4DgmI,3oplmf3ev80afezcyc4phujqmmslnu,3zwfc4w1uykbh4f2wanaklf83kmfrw,Zmf4DgmI,2020-0188,2020-11-16,18:59:35,19:18:18,NA,incomplete,156,race,3,1,right,C_M_16.jpg,A_M_06.jpg,C_F_10.jpg,left,1093,false,high,false
Zmf4DgmI,3oplmf3ev80afezcyc4phujqmmslnu,3zwfc4w1uykbh4f2wanaklf83kmfrw,Zmf4DgmI,2020-0188,2020-11-16,18:59:35,19:18:18,NA,incomplete,157,race,3,0,right,C_F_04.jpg,A_F_01.jpg,C_M_02.jpg,left,991,false,high,false
Zmf4DgmI,3oplmf3ev80afezcyc4phujqmmslnu,3zwfc4w1uykbh4f2wanaklf83kmfrw,Zmf4DgmI,2020-0188,2020-11-16,18:59:35,19:18:18,NA,incomplete,158,race,3,1,right,A_M_10.jpg,C_M_06.jpg,A_F_12.jpg,left,1131,false,high,false
Zmf4DgmI,3oplmf3ev80afezcyc4phujqmmslnu,3zwfc4w1uykbh4f2wanaklf83kmfrw,Zmf4DgmI,2020-0188,2020-11-16,18:59:35,19:18:18,NA,incomplete,159,race,3,1,right,C_M_06.jpg,A_M_11.jpg,C_F_03.jpg,right,1171,true,high,false
Zmf4DgmI,3oplmf3ev80afezcyc4phujqmmslnu,3zwfc4w1uykbh4f2wanaklf83kmfrw,Zmf4DgmI,2020-0188,2020-11-16,18:59:35,19:18:18,NA,incomplete,160,gender,2,1,right,A_M_10.jpg,A_F_02.jpg,C_M_08.jpg,left,999,false,high,false
Zmf4DgmI,3oplmf3ev80afezcyc4phujqmmslnu,3zwfc4w1uykbh4f2wanaklf83kmfrw,Zmf4DgmI,2020-0188,2020-11-16,18:59:35,19:18:18,NA,incomplete,161,gender,2,0,right,C_M_05.jpg,C_F_03.jpg,A_M_16.jpg,right,948,true,high,false
Zmf4DgmI,3oplmf3ev80afezcyc4phujqmmslnu,3zwfc4w1uykbh4f2wanaklf83kmfrw,Zmf4DgmI,2020-0188,2020-11-16,18:59:35,19:18:18,NA,incomplete,162,gender,2,1,right,A_F_02.jpg,A_M_03.jpg,C_F_05.jpg,left,1156,false,high,false
Zmf4DgmI,3oplmf3ev80afezcyc4phujqmmslnu,3zwfc4w1uykbh4f2wanaklf83kmfrw,Zmf4DgmI,2020-0188,2020-11-16,18:59:35,19:18:18,NA,incomplete,163,gender,2,1,left,C_F_06.jpg,A_F_11.jpg,C_M_04.jpg,left,952,true,high,false
Zmf4DgmI,3oplmf3ev80afezcyc4phujqmmslnu,3zwfc4w1uykbh4f2wanaklf83kmfrw,Zmf4DgmI,2020-0188,2020-11-16,18:59:35,19:18:18,NA,incomplete,164,gender,2,0,right,A_M_10.jpg,A_F_07.jpg,C_M_13.jpg,right,983,true,high,false
Zmf4DgmI,3oplmf3ev80afezcyc4phujqmmslnu,3zwfc4w1uykbh4f2wanaklf83kmfrw,Zmf4DgmI,2020-0188,2020-11-16,18:59:35,19:18:18,NA,incomplete,165,gender,2,1,right,C_M_13.jpg,C_F_06.jpg,A_M_03.jpg,right,949,true,high,false
Zmf4DgmI,3oplmf3ev80afezcyc4phujqmmslnu,3zwfc4w1uykbh4f2wanaklf83kmfrw,Zmf4DgmI,2020-0188,2020-11-16,18:59:35,19:18:18,NA,incomplete,166,gender,2,1,right,C_M_08.jpg,C_F_12.jpg,A_M_09.jpg,right,868,true,high,false
Zmf4DgmI,3oplmf3ev80afezcyc4phujqmmslnu,3zwfc4w1uykbh4f2wanaklf83kmfrw,Zmf4DgmI,2020-0188,2020-11-16,18:59:35,19:18:18,NA,incomplete,167,gender,2,1,left,A_M_11.jpg,C_M_06.jpg,A_F_09.jpg,left,998,true,high,false
Zmf4DgmI,3oplmf3ev80afezcyc4phujqmmslnu,3zwfc4w1uykbh4f2wanaklf83kmfrw,Zmf4DgmI,2020-0188,2020-11-16,18:59:35,19:18:18,NA,incomplete,168,gender,2,1,left,C_M_04.jpg,A_M_05.jpg,C_F_02.jpg,left,803,true,high,false
Zmf4DgmI,3oplmf3ev80afezcyc4phujqmmslnu,3zwfc4w1uykbh4f2wanaklf83kmfrw,Zmf4DgmI,2020-0188,2020-11-16,18:59:35,19:18:18,NA,incomplete,169,gender,2,1,right,A_M_14.jpg,A_F_07.jpg,C_M_04.jpg,left,950,false,high,false
Zmf4DgmI,3oplmf3ev80afezcyc4phujqmmslnu,3zwfc4w1uykbh4f2wanaklf83kmfrw,Zmf4DgmI,2020-0188,2020-11-16,18:59:35,19:18:18,NA,incomplete,170,gender,2,1,right,C_M_08.jpg,C_F_05.jpg,A_M_15.jpg,right,852,true,high,false
Zmf4DgmI,3oplmf3ev80afezcyc4phujqmmslnu,3zwfc4w1uykbh4f2wanaklf83kmfrw,Zmf4DgmI,2020-0188,2020-11-16,18:59:35,19:18:18,NA,incomplete,171,gender,2,1,right,A_M_04.jpg,A_F_03.jpg,C_M_13.jpg,right,823,true,high,false
Zmf4DgmI,3oplmf3ev80afezcyc4phujqmmslnu,3zwfc4w1uykbh4f2wanaklf83kmfrw,Zmf4DgmI,2020-0188,2020-11-16,18:59:35,19:18:18,NA,incomplete,172,gender,2,1,right,A_F_08.jpg,A_M_10.jpg,C_F_11.jpg,right,810,true,high,false
Zmf4DgmI,3oplmf3ev80afezcyc4phujqmmslnu,3zwfc4w1uykbh4f2wanaklf83kmfrw,Zmf4DgmI,2020-0188,2020-11-16,18:59:35,19:18:18,NA,incomplete,173,gender,2,1,left,C_F_07.jpg,A_F_04.jpg,C_M_02.jpg,right,928,false,high,false
Zmf4DgmI,3oplmf3ev80afezcyc4phujqmmslnu,3zwfc4w1uykbh4f2wanaklf83kmfrw,Zmf4DgmI,2020-0188,2020-11-16,18:59:35,19:18:18,NA,incomplete,174,gender,2,0,right,A_M_12.jpg,A_F_03.jpg,C_M_16.jpg,right,813,true,high,false
Zmf4DgmI,3oplmf3ev80afezcyc4phujqmmslnu,3zwfc4w1uykbh4f2wanaklf83kmfrw,Zmf4DgmI,2020-0188,2020-11-16,18:59:35,19:18:18,NA,incomplete,175,gender,2,1,left,A_M_01.jpg,C_M_10.jpg,A_F_11.jpg,left,1057,true,high,false
Zmf4DgmI,3oplmf3ev80afezcyc4phujqmmslnu,3zwfc4w1uykbh4f2wanaklf83kmfrw,Zmf4DgmI,2020-0188,2020-11-16,18:59:35,19:18:18,NA,incomplete,176,gender,2,0,left,C_M_04.jpg,A_M_11.jpg,C_F_01.jpg,left,1020,true,high,false
Zmf4DgmI,3oplmf3ev80afezcyc4phujqmmslnu,3zwfc4w1uykbh4f2wanaklf83kmfrw,Zmf4DgmI,2020-0188,2020-11-16,18:59:35,19:18:18,NA,incomplete,177,gender,2,1,right,A_F_04.jpg,A_M_12.jpg,C_F_07.jpg,right,1192,true,high,false
Zmf4DgmI,3oplmf3ev80afezcyc4phujqmmslnu,3zwfc4w1uykbh4f2wanaklf83kmfrw,Zmf4DgmI,2020-0188,2020-11-16,18:59:35,19:18:18,NA,incomplete,178,gender,2,1,right,C_M_06.jpg,C_F_03.jpg,A_M_10.jpg,right,909,true,high,false
Zmf4DgmI,3oplmf3ev80afezcyc4phujqmmslnu,3zwfc4w1uykbh4f2wanaklf83kmfrw,Zmf4DgmI,2020-0188,2020-11-16,18:59:35,19:18:18,NA,incomplete,179,gender,2,1,right,C_F_05.jpg,C_M_03.jpg,A_F_07.jpg,right,1005,true,high,false
Zmf4DgmI,3oplmf3ev80afezcyc4phujqmmslnu,3zwfc4w1uykbh4f2wanaklf83kmfrw,Zmf4DgmI,2020-0188,2020-11-16,18:59:35,19:18:18,NA,incomplete,180,race,3,0,left,C_M_08.jpg,C_F_01.jpg,A_M_15.jpg,right,1065,false,high,false
Zmf4DgmI,3oplmf3ev80afezcyc4phujqmmslnu,3zwfc4w1uykbh4f2wanaklf83kmfrw,Zmf4DgmI,2020-0188,2020-11-16,18:59:35,19:18:18,NA,incomplete,181,race,3,1,left,A_M_11.jpg,A_F_10.jpg,C_M_13.jpg,right,787,false,high,false
Zmf4DgmI,3oplmf3ev80afezcyc4phujqmmslnu,3zwfc4w1uykbh4f2wanaklf83kmfrw,Zmf4DgmI,2020-0188,2020-11-16,18:59:35,19:18:18,NA,incomplete,182,race,3,1,right,C_M_01.jpg,A_M_06.jpg,C_F_14.jpg,left,840,false,high,false
Zmf4DgmI,3oplmf3ev80afezcyc4phujqmmslnu,3zwfc4w1uykbh4f2wanaklf83kmfrw,Zmf4DgmI,2020-0188,2020-11-16,18:59:35,19:18:18,NA,incomplete,183,race,3,0,left,C_M_14.jpg,C_F_12.jpg,A_M_09.jpg,right,938,false,high,false
Zmf4DgmI,3oplmf3ev80afezcyc4phujqmmslnu,3zwfc4w1uykbh4f2wanaklf83kmfrw,Zmf4DgmI,2020-0188,2020-11-16,18:59:35,19:18:18,NA,incomplete,184,race,3,1,right,A_F_16.jpg,C_F_04.jpg,A_M_05.jpg,left,824,false,high,false
Zmf4DgmI,3oplmf3ev80afezcyc4phujqmmslnu,3zwfc4w1uykbh4f2wanaklf83kmfrw,Zmf4DgmI,2020-0188,2020-11-16,18:59:35,19:18:18,NA,incomplete,185,race,3,1,left,A_F_11.jpg,A_M_10.jpg,C_F_15.jpg,left,1117,true,high,false
Zmf4DgmI,3oplmf3ev80afezcyc4phujqmmslnu,3zwfc4w1uykbh4f2wanaklf83kmfrw,Zmf4DgmI,2020-0188,2020-11-16,18:59:35,19:18:18,NA,incomplete,186,race,3,1,right,A_M_11.jpg,C_M_08.jpg,A_F_06.jpg,left,1172,false,high,false
Zmf4DgmI,3oplmf3ev80afezcyc4phujqmmslnu,3zwfc4w1uykbh4f2wanaklf83kmfrw,Zmf4DgmI,2020-0188,2020-11-16,18:59:35,19:18:18,NA,incomplete,187,race,3,1,right,C_F_14.jpg,A_F_12.jpg,C_M_09.jpg,left,954,false,high,false
Zmf4DgmI,3oplmf3ev80afezcyc4phujqmmslnu,3zwfc4w1uykbh4f2wanaklf83kmfrw,Zmf4DgmI,2020-0188,2020-11-16,18:59:35,19:18:18,NA,incomplete,188,race,3,0,right,A_M_15.jpg,C_M_05.jpg,A_F_13.jpg,right,984,true,high,false
Zmf4DgmI,3oplmf3ev80afezcyc4phujqmmslnu,3zwfc4w1uykbh4f2wanaklf83kmfrw,Zmf4DgmI,2020-0188,2020-11-16,18:59:35,19:18:18,NA,incomplete,189,race,3,1,left,A_F_13.jpg,A_M_12.jpg,C_F_05.jpg,right,838,false,high,false
Zmf4DgmI,3oplmf3ev80afezcyc4phujqmmslnu,3zwfc4w1uykbh4f2wanaklf83kmfrw,Zmf4DgmI,2020-0188,2020-11-16,18:59:35,19:18:18,NA,incomplete,190,race,3,1,left,C_M_16.jpg,C_F_03.jpg,A_M_07.jpg,right,809,false,high,false
Zmf4DgmI,3oplmf3ev80afezcyc4phujqmmslnu,3zwfc4w1uykbh4f2wanaklf83kmfrw,Zmf4DgmI,2020-0188,2020-11-16,18:59:35,19:18:18,NA,incomplete,191,race,3,1,left,A_F_14.jpg,A_M_02.jpg,C_F_15.jpg,right,1196,false,high,false
Zmf4DgmI,3oplmf3ev80afezcyc4phujqmmslnu,3zwfc4w1uykbh4f2wanaklf83kmfrw,Zmf4DgmI,2020-0188,2020-11-16,18:59:35,19:18:18,NA,incomplete,192,race,3,1,right,A_M_03.jpg,C_M_10.jpg,A_F_15.jpg,left,993,false,high,false
Zmf4DgmI,3oplmf3ev80afezcyc4phujqmmslnu,3zwfc4w1uykbh4f2wanaklf83kmfrw,Zmf4DgmI,2020-0188,2020-11-16,18:59:35,19:18:18,NA,incomplete,193,race,3,1,right,C_M_06.jpg,A_M_01.jpg,C_F_10.jpg,left,1006,false,high,false
Zmf4DgmI,3oplmf3ev80afezcyc4phujqmmslnu,3zwfc4w1uykbh4f2wanaklf83kmfrw,Zmf4DgmI,2020-0188,2020-11-16,18:59:35,19:18:18,NA,incomplete,194,race,3,0,right,C_M_04.jpg,A_M_03.jpg,C_F_16.jpg,right,1017,true,high,false
Zmf4DgmI,3oplmf3ev80afezcyc4phujqmmslnu,3zwfc4w1uykbh4f2wanaklf83kmfrw,Zmf4DgmI,2020-0188,2020-11-16,18:59:35,19:18:18,NA,incomplete,195,race,3,1,left,C_F_07.jpg,C_M_01.jpg,A_F_05.jpg,right,997,false,high,false
Zmf4DgmI,3oplmf3ev80afezcyc4phujqmmslnu,3zwfc4w1uykbh4f2wanaklf83kmfrw,Zmf4DgmI,2020-0188,2020-11-16,18:59:35,19:18:18,NA,incomplete,196,race,3,1,right,C_F_02.jpg,A_F_16.jpg,C_M_08.jpg,right,978,true,high,false
Zmf4DgmI,3oplmf3ev80afezcyc4phujqmmslnu,3zwfc4w1uykbh4f2wanaklf83kmfrw,Zmf4DgmI,2020-0188,2020-11-16,18:59:35,19:18:18,NA,incomplete,197,race,3,1,left,C_F_06.jpg,C_M_09.jpg,A_F_02.jpg,left,1087,true,high,false
Zmf4DgmI,3oplmf3ev80afezcyc4phujqmmslnu,3zwfc4w1uykbh4f2wanaklf83kmfrw,Zmf4DgmI,2020-0188,2020-11-16,18:59:35,19:18:18,NA,incomplete,198,race,3,1,left,C_M_11.jpg,C_F_06.jpg,A_M_01.jpg,left,1097,true,high,false
Zmf4DgmI,3oplmf3ev80afezcyc4phujqmmslnu,3zwfc4w1uykbh4f2wanaklf83kmfrw,Zmf4DgmI,2020-0188,2020-11-16,18:59:35,19:18:18,NA,incomplete,199,race,3,1,right,C_F_06.jpg,A_F_14.jpg,C_M_15.jpg,right,913,true,high,false
Zmf4DgmI,3oplmf3ev80afezcyc4phujqmmslnu,3zwfc4w1uykbh4f2wanaklf83kmfrw,Zmf4DgmI,2020-0188,2020-11-16,18:59:35,19:18:18,NA,incomplete,200,gender,2,0,right,A_M_05.jpg,A_F_04.jpg,C_M_08.jpg,right,1010,true,high,false
Zmf4DgmI,3oplmf3ev80afezcyc4phujqmmslnu,3zwfc4w1uykbh4f2wanaklf83kmfrw,Zmf4DgmI,2020-0188,2020-11-16,18:59:35,19:18:18,NA,incomplete,201,gender,2,1,right,A_M_11.jpg,A_F_10.jpg,C_M_08.jpg,left,1005,false,high,false
Zmf4DgmI,3oplmf3ev80afezcyc4phujqmmslnu,3zwfc4w1uykbh4f2wanaklf83kmfrw,Zmf4DgmI,2020-0188,2020-11-16,18:59:35,19:18:18,NA,incomplete,202,gender,2,1,left,A_F_08.jpg,C_F_10.jpg,A_M_15.jpg,left,970,true,high,false
Zmf4DgmI,3oplmf3ev80afezcyc4phujqmmslnu,3zwfc4w1uykbh4f2wanaklf83kmfrw,Zmf4DgmI,2020-0188,2020-11-16,18:59:35,19:18:18,NA,incomplete,203,gender,2,1,left,A_F_08.jpg,C_F_11.jpg,A_M_15.jpg,left,919,true,high,false
Zmf4DgmI,3oplmf3ev80afezcyc4phujqmmslnu,3zwfc4w1uykbh4f2wanaklf83kmfrw,Zmf4DgmI,2020-0188,2020-11-16,18:59:35,19:18:18,NA,incomplete,204,gender,2,1,left,C_F_07.jpg,A_F_01.jpg,C_M_12.jpg,left,983,true,high,false
Zmf4DgmI,3oplmf3ev80afezcyc4phujqmmslnu,3zwfc4w1uykbh4f2wanaklf83kmfrw,Zmf4DgmI,2020-0188,2020-11-16,18:59:35,19:18:18,NA,incomplete,205,gender,2,1,right,C_F_07.jpg,C_M_04.jpg,A_F_10.jpg,right,948,true,high,false
Zmf4DgmI,3oplmf3ev80afezcyc4phujqmmslnu,3zwfc4w1uykbh4f2wanaklf83kmfrw,Zmf4DgmI,2020-0188,2020-11-16,18:59:35,19:18:18,NA,incomplete,206,gender,2,1,right,C_M_06.jpg,C_F_07.jpg,A_M_14.jpg,left,1251,false,high,false
Zmf4DgmI,3oplmf3ev80afezcyc4phujqmmslnu,3zwfc4w1uykbh4f2wanaklf83kmfrw,Zmf4DgmI,2020-0188,2020-11-16,18:59:35,19:18:18,NA,incomplete,207,gender,2,0,left,C_M_02.jpg,A_M_09.jpg,C_F_12.jpg,left,836,true,high,false
Zmf4DgmI,3oplmf3ev80afezcyc4phujqmmslnu,3zwfc4w1uykbh4f2wanaklf83kmfrw,Zmf4DgmI,2020-0188,2020-11-16,18:59:35,19:18:18,NA,incomplete,208,gender,2,1,right,C_F_03.jpg,C_M_16.jpg,A_F_05.jpg,right,1111,true,high,false
Zmf4DgmI,3oplmf3ev80afezcyc4phujqmmslnu,3zwfc4w1uykbh4f2wanaklf83kmfrw,Zmf4DgmI,2020-0188,2020-11-16,18:59:35,19:18:18,NA,incomplete,209,gender,2,1,right,A_M_16.jpg,A_F_13.jpg,C_M_01.jpg,left,1152,false,high,false
Zmf4DgmI,3oplmf3ev80afezcyc4phujqmmslnu,3zwfc4w1uykbh4f2wanaklf83kmfrw,Zmf4DgmI,2020-0188,2020-11-16,18:59:35,19:18:18,NA,incomplete,210,gender,2,1,left,A_F_12.jpg,C_F_06.jpg,A_M_01.jpg,left,870,true,high,false
Zmf4DgmI,3oplmf3ev80afezcyc4phujqmmslnu,3zwfc4w1uykbh4f2wanaklf83kmfrw,Zmf4DgmI,2020-0188,2020-11-16,18:59:35,19:18:18,NA,incomplete,211,gender,2,1,right,A_F_04.jpg,A_M_01.jpg,C_F_05.jpg,right,904,true,high,false
Zmf4DgmI,3oplmf3ev80afezcyc4phujqmmslnu,3zwfc4w1uykbh4f2wanaklf83kmfrw,Zmf4DgmI,2020-0188,2020-11-16,18:59:35,19:18:18,NA,incomplete,212,gender,2,1,right,A_F_03.jpg,A_M_02.jpg,C_F_11.jpg,right,952,true,high,false
Zmf4DgmI,3oplmf3ev80afezcyc4phujqmmslnu,3zwfc4w1uykbh4f2wanaklf83kmfrw,Zmf4DgmI,2020-0188,2020-11-16,18:59:35,19:18:18,NA,incomplete,213,gender,2,1,left,C_M_15.jpg,A_M_14.jpg,C_F_06.jpg,left,854,true,high,false
Zmf4DgmI,3oplmf3ev80afezcyc4phujqmmslnu,3zwfc4w1uykbh4f2wanaklf83kmfrw,Zmf4DgmI,2020-0188,2020-11-16,18:59:35,19:18:18,NA,incomplete,214,gender,2,1,right,A_F_03.jpg,A_M_14.jpg,C_F_12.jpg,right,872,true,high,false
Zmf4DgmI,3oplmf3ev80afezcyc4phujqmmslnu,3zwfc4w1uykbh4f2wanaklf83kmfrw,Zmf4DgmI,2020-0188,2020-11-16,18:59:35,19:18:18,NA,incomplete,215,gender,2,1,left,A_F_10.jpg,C_F_06.jpg,A_M_02.jpg,left,888,true,high,false
Zmf4DgmI,3oplmf3ev80afezcyc4phujqmmslnu,3zwfc4w1uykbh4f2wanaklf83kmfrw,Zmf4DgmI,2020-0188,2020-11-16,18:59:35,19:18:18,NA,incomplete,216,gender,2,1,right,C_M_09.jpg,C_F_06.jpg,A_M_01.jpg,right,826,true,high,false
Zmf4DgmI,3oplmf3ev80afezcyc4phujqmmslnu,3zwfc4w1uykbh4f2wanaklf83kmfrw,Zmf4DgmI,2020-0188,2020-11-16,18:59:35,19:18:18,NA,incomplete,217,gender,2,0,right,A_F_05.jpg,A_M_13.jpg,C_F_01.jpg,right,957,true,high,false
Zmf4DgmI,3oplmf3ev80afezcyc4phujqmmslnu,3zwfc4w1uykbh4f2wanaklf83kmfrw,Zmf4DgmI,2020-0188,2020-11-16,18:59:35,19:18:18,NA,incomplete,218,gender,2,1,right,C_M_12.jpg,C_F_14.jpg,A_M_05.jpg,left,1164,false,high,false
Zmf4DgmI,3oplmf3ev80afezcyc4phujqmmslnu,3zwfc4w1uykbh4f2wanaklf83kmfrw,Zmf4DgmI,2020-0188,2020-11-16,18:59:35,19:18:18,NA,incomplete,219,gender,2,1,left,C_F_07.jpg,A_F_12.jpg,C_M_11.jpg,right,1042,false,high,false
Zmf4DgmI,3oplmf3ev80afezcyc4phujqmmslnu,3zwfc4w1uykbh4f2wanaklf83kmfrw,Zmf4DgmI,2020-0188,2020-11-16,18:59:35,19:18:18,NA,incomplete,220,race,3,1,left,C_F_12.jpg,C_M_10.jpg,A_F_05.jpg,right,796,false,high,false
Zmf4DgmI,3oplmf3ev80afezcyc4phujqmmslnu,3zwfc4w1uykbh4f2wanaklf83kmfrw,Zmf4DgmI,2020-0188,2020-11-16,18:59:35,19:18:18,NA,incomplete,221,race,3,0,left,C_F_05.jpg,C_M_08.jpg,A_F_01.jpg,right,1282,false,high,false
Zmf4DgmI,3oplmf3ev80afezcyc4phujqmmslnu,3zwfc4w1uykbh4f2wanaklf83kmfrw,Zmf4DgmI,2020-0188,2020-11-16,18:59:35,19:18:18,NA,incomplete,222,race,3,1,right,C_F_05.jpg,A_F_15.jpg,C_M_08.jpg,left,851,false,high,false
Zmf4DgmI,3oplmf3ev80afezcyc4phujqmmslnu,3zwfc4w1uykbh4f2wanaklf83kmfrw,Zmf4DgmI,2020-0188,2020-11-16,18:59:35,19:18:18,NA,incomplete,223,race,3,1,left,A_M_03.jpg,A_F_07.jpg,C_M_16.jpg,right,1092,false,high,false
Zmf4DgmI,3oplmf3ev80afezcyc4phujqmmslnu,3zwfc4w1uykbh4f2wanaklf83kmfrw,Zmf4DgmI,2020-0188,2020-11-16,18:59:35,19:18:18,NA,incomplete,224,race,3,1,right,C_M_12.jpg,A_M_01.jpg,C_F_02.jpg,left,1277,false,high,false
Zmf4DgmI,3oplmf3ev80afezcyc4phujqmmslnu,3zwfc4w1uykbh4f2wanaklf83kmfrw,Zmf4DgmI,2020-0188,2020-11-16,18:59:35,19:18:18,NA,incomplete,225,race,3,1,right,C_F_11.jpg,A_F_10.jpg,C_M_02.jpg,right,1134,true,high,false
Zmf4DgmI,3oplmf3ev80afezcyc4phujqmmslnu,3zwfc4w1uykbh4f2wanaklf83kmfrw,Zmf4DgmI,2020-0188,2020-11-16,18:59:35,19:18:18,NA,incomplete,226,race,3,0,left,C_F_06.jpg,C_M_15.jpg,A_F_02.jpg,left,1045,true,high,false
Zmf4DgmI,3oplmf3ev80afezcyc4phujqmmslnu,3zwfc4w1uykbh4f2wanaklf83kmfrw,Zmf4DgmI,2020-0188,2020-11-16,18:59:35,19:18:18,NA,incomplete,227,race,3,1,right,A_M_05.jpg,C_M_10.jpg,A_F_04.jpg,left,1024,false,high,false
Zmf4DgmI,3oplmf3ev80afezcyc4phujqmmslnu,3zwfc4w1uykbh4f2wanaklf83kmfrw,Zmf4DgmI,2020-0188,2020-11-16,18:59:35,19:18:18,NA,incomplete,228,race,3,1,right,A_M_12.jpg,C_M_05.jpg,A_F_16.jpg,right,1069,true,high,false
Zmf4DgmI,3oplmf3ev80afezcyc4phujqmmslnu,3zwfc4w1uykbh4f2wanaklf83kmfrw,Zmf4DgmI,2020-0188,2020-11-16,18:59:35,19:18:18,NA,incomplete,229,race,3,1,left,C_F_08.jpg,C_M_05.jpg,A_F_12.jpg,left,1205,true,high,false
Zmf4DgmI,3oplmf3ev80afezcyc4phujqmmslnu,3zwfc4w1uykbh4f2wanaklf83kmfrw,Zmf4DgmI,2020-0188,2020-11-16,18:59:35,19:18:18,NA,incomplete,230,race,3,1,right,C_F_16.jpg,A_F_11.jpg,C_M_10.jpg,right,1018,true,high,false
Zmf4DgmI,3oplmf3ev80afezcyc4phujqmmslnu,3zwfc4w1uykbh4f2wanaklf83kmfrw,Zmf4DgmI,2020-0188,2020-11-16,18:59:35,19:18:18,NA,incomplete,231,race,3,1,left,C_M_16.jpg,C_F_09.jpg,A_M_13.jpg,left,981,true,high,false
Zmf4DgmI,3oplmf3ev80afezcyc4phujqmmslnu,3zwfc4w1uykbh4f2wanaklf83kmfrw,Zmf4DgmI,2020-0188,2020-11-16,18:59:35,19:18:18,NA,incomplete,232,race,3,1,left,A_F_07.jpg,A_M_03.jpg,C_F_13.jpg,left,1235,true,high,false
Zmf4DgmI,3oplmf3ev80afezcyc4phujqmmslnu,3zwfc4w1uykbh4f2wanaklf83kmfrw,Zmf4DgmI,2020-0188,2020-11-16,18:59:35,19:18:18,NA,incomplete,233,race,3,0,left,C_F_07.jpg,C_M_12.jpg,A_F_02.jpg,right,1142,false,high,false
Zmf4DgmI,3oplmf3ev80afezcyc4phujqmmslnu,3zwfc4w1uykbh4f2wanaklf83kmfrw,Zmf4DgmI,2020-0188,2020-11-16,18:59:35,19:18:18,NA,incomplete,234,race,3,1,left,C_F_08.jpg,C_M_05.jpg,A_F_16.jpg,right,876,false,high,false
Zmf4DgmI,3oplmf3ev80afezcyc4phujqmmslnu,3zwfc4w1uykbh4f2wanaklf83kmfrw,Zmf4DgmI,2020-0188,2020-11-16,18:59:35,19:18:18,NA,incomplete,235,race,3,1,right,A_M_09.jpg,C_M_06.jpg,A_F_16.jpg,right,1134,true,high,false
Zmf4DgmI,3oplmf3ev80afezcyc4phujqmmslnu,3zwfc4w1uykbh4f2wanaklf83kmfrw,Zmf4DgmI,2020-0188,2020-11-16,18:59:35,19:18:18,NA,incomplete,236,race,3,1,right,C_M_16.jpg,A_M_01.jpg,C_F_08.jpg,right,1253,true,high,false
Zmf4DgmI,3oplmf3ev80afezcyc4phujqmmslnu,3zwfc4w1uykbh4f2wanaklf83kmfrw,Zmf4DgmI,2020-0188,2020-11-16,18:59:35,19:18:18,NA,incomplete,237,race,3,1,left,A_F_01.jpg,A_M_05.jpg,C_F_04.jpg,left,1047,true,high,false
Zmf4DgmI,3oplmf3ev80afezcyc4phujqmmslnu,3zwfc4w1uykbh4f2wanaklf83kmfrw,Zmf4DgmI,2020-0188,2020-11-16,18:59:35,19:18:18,NA,incomplete,238,race,3,0,right,C_F_06.jpg,A_F_08.jpg,C_M_10.jpg,right,928,true,high,false
Zmf4DgmI,3oplmf3ev80afezcyc4phujqmmslnu,3zwfc4w1uykbh4f2wanaklf83kmfrw,Zmf4DgmI,2020-0188,2020-11-16,18:59:35,19:18:18,NA,incomplete,239,race,3,1,left,A_F_02.jpg,A_M_05.jpg,C_F_06.jpg,right,896,false,high,false
Zmf4DgmI,3oplmf3ev80afezcyc4phujqmmslnu,3zwfc4w1uykbh4f2wanaklf83kmfrw,Zmf4DgmI,2020-0188,2020-11-16,18:59:35,19:18:18,NA,NA,instruction example,color,NA,NA,NA,Blue_Circle_Chess_1.jpg,Blue_Triangle_Dots_2.jpg,Red_Circle_Grid_4.jpg,NA,NA,NA,NA,undefined
Zmf4DgmI,3oplmf3ev80afezcyc4phujqmmslnu,3zwfc4w1uykbh4f2wanaklf83kmfrw,Zmf4DgmI,2020-0188,2020-11-16,18:59:35,19:18:18,NA,NA,instruction example,color,NA,NA,NA,Green_Circle_Chess_4.jpg,Purple_Circle_Dots_2.jpg,Green_Plus_Grid_1.jpg,NA,NA,NA,NA,undefined
Zmf4DgmI,3oplmf3ev80afezcyc4phujqmmslnu,3zwfc4w1uykbh4f2wanaklf83kmfrw,Zmf4DgmI,2020-0188,2020-11-16,18:59:35,19:18:18,NA,NA,instruction example,color,NA,NA,NA,C_F_02.jpg,A_F_14.jpg,C_M_01.jpg,NA,NA,NA,NA,undefined
Zmf4DgmI,3oplmf3ev80afezcyc4phujqmmslnu,3zwfc4w1uykbh4f2wanaklf83kmfrw,Zmf4DgmI,2020-0188,2020-11-16,18:59:35,19:18:18,NA,NA,instruction example,color,NA,NA,NA,A_F_12.jpg,A_M_06.jpg,C_F_03.jpg,NA,NA,NA,NA,undefined
